

# Realligned optics
# Scan parameters: power 16.000000 dBm, bandwidth 1.500000 Hz
# Frequency [MHz]	avg noise	std noise	peak value
3000.000000	9020.226687	8560.899492	47359.196053
3010.000000	10541.931874	10094.099893	62371.266201
3020.000000	10994.035840	10356.598133	49844.325302
3030.000000	13986.380629	13032.251423	83028.125819
3040.000000	13326.144280	13127.949075	64199.480153
3050.000000	13375.351552	13289.909662	52045.119863
3060.000000	11678.023731	11292.464692	45536.553980
3070.000000	11844.753290	11486.645285	58632.049509
3080.000000	9654.475697	9770.278127	51028.733885
3090.000000	8353.133843	7859.358484	37368.570646
3100.000000	6776.419302	6075.055721	28236.315053
3110.000000	5653.812306	6032.619287	51305.620798
3120.000000	5813.096210	5227.685414	24976.829920
3130.000000	5157.809129	5734.823239	18174.414916
3140.000000	4379.257633	4649.289865	23633.633211
3150.000000	4978.928151	5329.262516	15148.053268
3160.000000	4800.155697	4529.254127	21270.113647
3170.000000	4391.822355	4185.858579	15972.656833
3180.000000	4435.607077	4319.430421	24366.045514
3190.000000	4892.291408	5468.144948	13476.166984
3200.000000	4655.621095	4443.556704	24073.247381
3210.000000	4701.673298	4884.725151	20594.308496
3220.000000	4904.015936	4766.387618	23122.021229
3230.000000	4747.228544	4481.568293	23874.634151
3240.000000	4755.264408	4960.262919	21153.813518
3250.000000	4564.420651	4551.974139	19760.929138
3260.000000	5102.665745	4887.499719	18752.659504
3270.000000	4663.978542	4663.230806	17839.542139
3280.000000	5003.512317	5550.076947	23485.097503
3290.000000	5554.807210	5951.512751	43815.842828
3300.000000	5279.630507	5336.317703	16242.627573
3310.000000	5837.449495	5909.764686	22139.525876
3320.000000	5508.955562	5557.572291	28056.247875
3330.000000	6607.439319	7223.285035	29327.743155
3340.000000	6389.189727	6398.293371	36786.951673
3350.000000	6593.435136	6312.637606	24267.068914
3360.000000	8634.896571	8797.186704	28821.439956
3370.000000	8446.655824	8139.169000	45387.887142
3380.000000	10341.723416	11375.528762	38241.130776
3390.000000	13332.767882	13250.094248	59289.550291
3400.000000	14328.398019	13457.860948	67023.558001
3410.000000	16153.106464	16655.969694	81292.107028
3420.000000	18813.229394	19956.856453	65498.281337
3430.000000	19607.382467	19310.226943	102559.247473
3440.000000	16101.597843	16809.512601	103054.318599
3450.000000	17498.310165	17380.468530	73565.568868
3460.000000	14249.846269	14313.776109	70579.595504
3470.000000	14738.854470	14632.281572	54746.841888
3480.000000	14148.941151	13994.738841	52798.935250
3490.000000	12630.276932	12206.849549	56650.023171
3500.000000	13049.611623	12796.472576	63030.583884
3510.000000	13359.583723	11813.044017	60276.686957
3520.000000	12192.524281	11502.237101	97862.819952
3530.000000	13045.333793	13012.753951	55269.994828
3540.000000	13320.673954	13252.657595	57477.192291
3550.000000	12585.456242	11975.454628	64711.775674
3560.000000	13946.463907	13838.310307	66389.395008
3570.000000	14004.387347	15641.163758	50626.440252
3580.000000	14353.054958	13194.915486	67835.064767
3590.000000	12609.787424	13401.799885	51880.146047
3600.000000	13707.181828	13873.533425	51177.385833
3610.000000	12209.082858	12586.063267	78705.478311
3620.000000	12701.049992	13098.387105	91554.895698
3630.000000	13334.610099	12665.829399	70206.700234
3640.000000	12407.013588	12267.545408	42142.668128
3650.000000	12603.793432	14445.737778	61422.800730
3660.000000	12421.309288	12710.275319	60931.537568
3670.000000	12297.289535	11689.005735	81876.940745
3680.000000	11105.602287	11533.907357	75783.112689
3690.000000	11041.494741	10053.902130	58148.093190
3700.000000	11345.928428	10306.578451	44958.471998
3710.000000	11311.796540	11364.771525	52636.829268
3720.000000	12451.495970	11698.401909	82543.847494
3730.000000	14492.976045	15546.814064	53995.288008
3740.000000	13986.598174	14000.771040	92487.268206
3750.000000	16622.475961	18451.032779	128536.989186
3760.000000	17473.017158	17488.000708	83476.629496
3770.000000	20198.158024	19038.440645	58299.574023
3780.000000	18992.498617	18871.534341	105184.006778
3790.000000	19349.115886	18715.163216	47227.403061
3800.000000	20111.236885	19092.508110	65615.138020
3810.000000	21639.628102	20877.140039	104348.436613
3820.000000	21339.364581	21339.952927	65956.706201
3830.000000	18747.923545	18276.368117	96497.549373
3840.000000	15842.464576	16095.213783	107321.726241
3850.000000	15405.611926	14988.459212	44983.639954
3860.000000	15269.054720	14514.243539	81859.305000
3870.000000	13323.656349	13602.548176	63385.646369
3880.000000	12665.807714	12050.365564	54086.091753
3890.000000	12355.273625	11526.947479	62104.034808
3900.000000	12579.653720	12966.278429	55278.098473
3910.000000	13290.523778	13428.045095	74454.454122
3920.000000	13120.219662	12250.725608	52528.931654
3930.000000	14241.086180	14219.955690	86451.038835
3940.000000	14114.724072	13960.829261	36246.818904
3950.000000	15139.078140	14752.218613	96230.033749
3960.000000	15623.460003	15957.506403	45432.872969
3970.000000	14750.940091	14135.950682	56868.129338
3980.000000	15599.632456	15568.574090	65068.856668
3990.000000	14745.343265	14100.744245	94352.468294
4000.000000	15350.312610	15315.011210	78807.917815
4010.000000	13956.387906	13211.320341	79952.425619
4020.000000	14549.005496	14382.282337	93510.146627
4030.000000	12462.750943	11707.650151	68514.688567
4040.000000	12548.188468	12250.965925	81536.512844
4050.000000	13075.049125	11848.362913	43944.741014
4060.000000	11867.395582	11410.695610	34115.600493
4070.000000	11028.230295	10664.279854	53821.478230
4080.000000	9764.350655	8989.431515	48411.492191
4090.000000	11571.762355	11504.121571	57557.606821
4100.000000	11845.228529	12255.145373	59243.708959
4110.000000	13527.347305	13093.817595	55992.708057
4120.000000	14660.973325	14546.921293	89532.949949
4130.000000	15863.375921	14818.422696	73603.151817
4140.000000	14849.543256	13820.413592	57384.771233
4150.000000	16780.230146	17181.935146	126511.964425
4160.000000	17264.570468	16806.021438	92436.771495
4170.000000	15208.634173	15313.711523	75150.548691
4180.000000	14719.863189	14610.539878	96702.789914
4190.000000	14596.797284	13749.312995	85803.990845
4200.000000	10668.709773	11917.117890	41640.281303
4210.000000	9223.436938	9754.220446	61230.530781
4220.000000	7924.927973	7626.179252	52178.811266
4230.000000	7227.407960	6923.077177	40528.422851
4240.000000	5910.729979	6098.919521	28841.573367
4250.000000	6772.898726	6380.402684	19724.075439
4260.000000	6460.844676	5882.656053	29763.190478
4270.000000	6053.812747	6339.093043	22837.331804
4280.000000	5967.889528	5732.002483	31927.127741
4290.000000	6538.162944	5985.120047	31154.960800
4300.000000	6055.142122	6831.726251	21784.322630
4310.000000	6775.179902	7050.791281	54733.641292
4320.000000	7540.950875	7268.659041	24586.541918
4330.000000	8344.569410	8132.605450	50072.138470
4340.000000	8398.350859	7924.609625	40556.573949
4350.000000	8906.333184	8050.170403	64312.066943
4360.000000	9752.827113	9662.537991	37521.361960
4370.000000	11313.725964	11187.991713	53452.053058
4380.000000	9841.146897	9905.926367	47185.134497
4390.000000	9192.752889	9677.691618	44684.294271
4400.000000	7641.296205	7066.766540	31355.031269
4410.000000	7225.557275	7042.192155	39693.076352
4420.000000	6046.637578	6107.450513	49801.637431
4430.000000	6029.155191	6205.481407	35173.891212
4440.000000	6169.886815	6214.690057	32917.152477
4450.000000	6001.477861	6547.910736	32054.083929
4460.000000	7175.929390	6251.227181	36716.429141
4470.000000	8890.775327	9065.352062	52098.836674
4480.000000	10878.625388	10853.887500	70786.357088
4490.000000	13137.207555	13069.978455	72337.087961
4500.000000	14268.141011	14075.571568	86012.480430
4510.000000	19795.453257	20481.365890	74826.530499
4520.000000	20249.314574	21722.312103	71837.019526
4530.000000	21736.821865	21920.818714	56593.541875
4540.000000	17466.012211	18385.482109	77191.061620
4550.000000	13948.466652	13517.515240	60332.174101
4560.000000	12200.858236	12825.321885	85476.850502
4570.000000	7974.148667	7556.143701	61776.008143
4580.000000	5764.219130	5970.214967	56667.032327
4590.000000	5190.316980	4909.905878	25565.113672
4600.000000	4660.314284	4841.262618	17541.044614
4610.000000	3798.518660	3705.691459	21322.574829
4620.000000	3963.920961	3955.309517	22116.920552
4630.000000	3469.454340	3530.772724	17225.973906
4640.000000	3519.538067	3627.507958	18628.871732
4650.000000	3490.495312	3895.580946	14627.441309
4660.000000	3403.461696	3452.558313	19741.943646
4670.000000	3892.404428	4024.322031	18057.520446
4680.000000	4652.596427	4556.534178	16051.381554
4690.000000	5322.033317	5087.663049	26326.738697
4700.000000	5661.489362	5547.803097	30164.789526
4710.000000	5951.024152	6468.996567	37343.358664
4720.000000	6826.355420	6443.404869	29599.056579
4730.000000	6498.756819	6800.048152	23422.952322
4740.000000	5966.121548	6050.293234	31646.934448
4750.000000	5595.518912	6034.744688	29924.873068
4760.000000	5142.201063	5162.541206	28863.064056
4770.000000	4564.282292	4397.209338	23063.771278
4780.000000	3645.127969	3893.814956	12281.086025
4790.000000	3806.662989	3605.660298	11499.189312
4800.000000	3687.997575	3459.735662	20548.084326
4810.000000	3750.156445	3560.451288	10301.456643
4820.000000	3672.620670	3445.735693	15724.944751
4830.000000	4498.251187	4745.317962	21991.159585
4840.000000	5485.360927	5604.837096	28048.916758
4850.000000	6732.047993	7306.861053	24991.706798
4860.000000	9014.499362	8755.397855	24779.770992
4870.000000	9917.625708	9959.454045	53226.558994
4880.000000	14718.727161	15274.978302	75986.930979
4890.000000	15033.293761	15551.775414	104255.458037
4900.000000	15406.379302	14710.032456	69876.303767
4910.000000	12211.938965	11312.835746	57376.852569
4920.000000	11924.154658	12843.230517	42196.824263
4930.000000	10338.447496	10446.094858	46647.033452
4940.000000	8811.180591	8389.795323	32608.706919
4950.000000	6293.422826	5839.282894	35989.872454
4960.000000	4530.473586	4532.029892	23030.424689
4970.000000	3744.385368	3825.664228	15374.461118
4980.000000	2899.634947	2821.490146	18506.423543
4990.000000	2884.934067	3231.422180	14528.511537
5000.000000	2272.388238	2292.706289	8957.183308
5010.000000	2401.437863	2508.519482	16701.808196
5020.000000	2657.729210	2727.932410	14555.263593
5030.000000	2937.065793	2992.296352	20079.373360
5040.000000	2917.664458	2770.831294	10550.930731
5050.000000	2617.000882	2472.915926	15796.186355
5060.000000	2970.079118	3006.420551	14111.342431
5070.000000	3453.109398	3525.038952	15557.434945
5080.000000	3957.953979	3906.239150	14932.845268
5090.000000	4022.878773	3721.265344	16002.829198
5100.000000	4824.030441	4503.208368	16642.295718
5110.000000	4809.439677	4688.539025	23457.354940
5120.000000	5436.540250	5885.989071	30143.340846
5130.000000	5486.248380	5480.729331	26488.226951
5140.000000	5792.315862	5727.369603	28196.955081
5150.000000	2257.273728	2134.090879	7325.476695
5160.000000	0.384032	0.393498	2.072874
5170.000000	0.319682	0.341573	1.594438
5180.000000	0.300173	0.301998	1.108060
5190.000000	0.316619	0.304509	1.610967
5200.000000	0.298998	0.288295	1.565116
5210.000000	0.303193	0.318009	1.552822
5220.000000	0.304187	0.275545	1.049124
5230.000000	0.339287	0.342104	1.728306
5240.000000	0.438477	0.436106	3.123647
5250.000000	0.499583	0.504583	1.690211
5260.000000	0.619256	0.575867	2.909408
5270.000000	0.814572	0.809854	4.260737
5280.000000	0.998442	1.042678	5.247204
5290.000000	1.175755	1.225917	2.888941
5300.000000	1.049972	1.073844	4.041114
5310.000000	0.976962	0.957751	4.947125
5320.000000	0.749012	0.741749	2.116692
5330.000000	0.471619	0.463447	3.313234
5340.000000	0.279735	0.293407	1.038638
5350.000000	0.193212	0.186729	1.160895
5360.000000	0.155996	0.141003	0.554071
5370.000000	0.128561	0.123984	0.693488
5380.000000	0.123914	0.121223	0.538476
5390.000000	0.108090	0.110105	0.725552
5400.000000	0.111245	0.110174	0.382687
5410.000000	0.117865	0.130110	0.859318
5420.000000	0.111717	0.114831	0.357577
5430.000000	0.107928	0.097528	0.493019
5440.000000	0.118905	0.116574	0.712879
5450.000000	0.123861	0.132405	0.440113
5460.000000	0.117996	0.113604	0.783691
5470.000000	0.169948	0.155118	1.122718
5480.000000	0.159603	0.159347	0.615976
5490.000000	0.154660	0.156576	0.639998
5500.000000	0.169256	0.169574	1.065585
5510.000000	0.173017	0.173917	0.788971
5520.000000	0.149138	0.158610	0.468117
5530.000000	0.101677	0.102713	0.416518
5540.000000	0.094297	0.088198	0.411019
5550.000000	0.082277	0.080375	0.520297
5560.000000	0.088351	0.080848	0.456156
5570.000000	0.075043	0.082005	0.386698
5580.000000	0.077625	0.080401	0.325335
5590.000000	0.076389	0.070114	0.801228
5600.000000	0.071825	0.067282	0.417411
5610.000000	0.083960	0.081531	0.471284
5620.000000	0.086242	0.085040	0.328328
5630.000000	0.102203	0.102448	0.318794
5640.000000	0.136081	0.130724	0.790325
5650.000000	0.250669	0.264751	1.039847
5660.000000	0.250960	0.228894	1.299226
5670.000000	0.197838	0.191631	0.818223
5680.000000	0.198090	0.194265	0.963845
5690.000000	0.160242	0.163592	0.503245
5700.000000	0.126413	0.141520	0.481052
5710.000000	0.105028	0.099803	0.650778
5720.000000	0.080915	0.079204	0.495200
5730.000000	0.073447	0.075802	0.697210
5740.000000	0.059794	0.061048	0.287157
5750.000000	0.063557	0.069600	0.380970
5760.000000	0.060405	0.057792	0.356965
5770.000000	0.060123	0.066536	0.688573
5780.000000	0.059409	0.055042	0.413077
5790.000000	0.064359	0.059201	0.863164
5800.000000	0.070554	0.069389	0.575324
5810.000000	0.062330	0.064099	0.285286
5820.000000	0.060185	0.059661	0.415674
5830.000000	0.064199	0.059652	0.412328
5840.000000	0.068557	0.071709	0.401529
5850.000000	0.071626	0.066105	0.818043
5860.000000	0.078839	0.085029	0.747522
5870.000000	0.088354	0.081215	0.545501
5880.000000	0.096210	0.096392	0.465577
5890.000000	0.087369	0.081110	0.839094
5900.000000	0.074829	0.067555	0.546321
5910.000000	0.078212	0.086913	1.135679
5920.000000	0.078430	0.080201	0.914888
5930.000000	0.074316	0.068807	0.515742
5940.000000	0.083799	0.077643	0.891115
5950.000000	0.082970	0.080754	0.386786
5960.000000	0.090964	0.096775	0.991805
5970.000000	0.092067	0.096382	0.418133
5980.000000	0.099180	0.101716	0.738571
5990.000000	0.103334	0.111104	0.894445
6000.000000	0.126721	0.112200	0.690002
