

# Now second HP is listening again, not in the two previous meas
# Scan parameters: power 16.000000 dBm, bandwidth 1.500000 Hz
# Frequency [MHz]	avg noise	std noise	peak value
3000.000000	0.026786	0.026233	2.761530
3010.000000	0.029934	0.028733	8.704796
3020.000000	0.027895	0.028420	1.218033
3030.000000	0.029904	0.031216	3.335009
3040.000000	0.034078	0.033026	2.751944
3050.000000	0.032284	0.032822	3.250727
3060.000000	0.029491	0.027773	4.343025
3070.000000	0.030282	0.029371	4.005647
3080.000000	0.031416	0.032333	12.631479
3090.000000	0.030641	0.031823	4.296238
3100.000000	0.026441	0.025683	8.184020
3110.000000	0.028906	0.029397	2.587245
3120.000000	0.029957	0.029570	0.446594
3130.000000	0.027512	0.026396	4.258256
3140.000000	0.027611	0.032047	2.535976
3150.000000	0.026482	0.027775	0.289398
3160.000000	0.027280	0.028354	5.166854
3170.000000	0.027861	0.031035	4.873725
3180.000000	0.031286	0.030171	0.300446
3190.000000	0.025644	0.025976	9.617768
3200.000000	0.026455	0.027164	3.803800
3210.000000	0.026576	0.025497	10.398162
3220.000000	0.027552	0.025316	3.727074
3230.000000	0.028750	0.027649	6.034372
3240.000000	0.026389	0.027667	2.295715
3250.000000	0.027493	0.026784	11.084441
3260.000000	0.030567	0.030144	7.912182
3270.000000	0.028662	0.030330	18.838638
3280.000000	0.026791	0.026334	3.177067
3290.000000	0.027548	0.028398	1.212743
3300.000000	0.028737	0.027984	0.529040
3310.000000	0.029721	0.027830	9.213269
3320.000000	0.029561	0.028234	0.461653
3330.000000	0.031916	0.031688	0.265067
3340.000000	0.030544	0.032427	2.709783
3350.000000	0.029852	0.031497	6.639578
3360.000000	0.030684	0.036626	9.019248
3370.000000	0.034912	0.035547	5.964830
3380.000000	0.030816	0.032578	1.377123
3390.000000	0.033369	0.037467	1.059365
3400.000000	0.034635	0.037316	8.948394
3410.000000	0.039971	0.044092	0.992213
3420.000000	0.035789	0.037739	1.419960
3430.000000	0.037282	0.039295	7.054785
3440.000000	0.036831	0.037647	1.405653
3450.000000	0.037834	0.042343	16.326646
3460.000000	0.037089	0.037131	19.406387
3470.000000	0.039796	0.041071	3.906437
3480.000000	0.043233	0.043872	10.065219
3490.000000	0.042208	0.038998	15.143686
3500.000000	0.047324	0.053278	12.304203
3510.000000	0.043716	0.038217	3.081635
3520.000000	0.046065	0.038776	1.046932
3530.000000	0.047004	0.046763	0.241800
3540.000000	0.045266	0.044151	3.391481
3550.000000	0.045936	0.042208	2.522777
3560.000000	0.053976	0.058858	0.296377
3570.000000	0.047560	0.048245	0.387630
3580.000000	0.055545	0.058503	1.949169
3590.000000	0.048891	0.048779	3.221816
3600.000000	0.046987	0.044177	2.767019
3610.000000	0.052247	0.052413	2.559446
3620.000000	0.051184	0.046788	3.489893
3630.000000	0.046903	0.046588	4.495012
3640.000000	0.049234	0.049588	4.544093
3650.000000	0.048034	0.048958	7.636471
3660.000000	0.047542	0.049014	20.011637
3670.000000	0.050210	0.046551	18.921679
3680.000000	0.045372	0.046217	7.656790
3690.000000	0.042210	0.043386	13.623466
3700.000000	0.043693	0.044798	17.745671
3710.000000	0.049566	0.045513	10.494137
3720.000000	0.047119	0.047236	11.355491
3730.000000	0.047186	0.043050	8.370621
3740.000000	0.049948	0.047739	2.879316
3750.000000	0.048025	0.051004	1.745322
3760.000000	0.045766	0.049532	3.512585
3770.000000	0.046373	0.041555	1.449597
3780.000000	0.045148	0.050889	1.595991
3790.000000	0.043239	0.040084	4.022334
3800.000000	0.045109	0.046018	7.277967
3810.000000	0.051116	0.055550	7.194361
3820.000000	0.047282	0.047789	3.081473
3830.000000	0.051406	0.048852	5.980934
3840.000000	0.060514	0.057633	4.490070
3850.000000	0.050358	0.047512	1.865166
3860.000000	0.058070	0.051771	5.708738
3870.000000	0.056488	0.051969	2.515027
3880.000000	0.052041	0.050772	0.624598
3890.000000	0.055096	0.053836	2.418534
3900.000000	0.060855	0.060230	13.420822
3910.000000	0.065481	0.063818	11.482036
3920.000000	0.062970	0.064839	1.070346
3930.000000	0.064574	0.064441	2.196369
3940.000000	0.069834	0.066993	2.231911
3950.000000	0.063424	0.053389	1.656908
3960.000000	0.071554	0.072326	4.823880
3970.000000	0.068147	0.071536	0.252093
3980.000000	0.061969	0.059391	2.227812
3990.000000	0.076411	0.082373	2.859390
4000.000000	0.066456	0.061860	1.364469
4010.000000	0.068931	0.065475	0.286038
4020.000000	0.067525	0.069536	0.412391
4030.000000	0.067195	0.064892	1.306213
4040.000000	0.066333	0.070180	0.724227
4050.000000	0.067832	0.074480	0.500358
4060.000000	0.060375	0.055847	11.242975
4070.000000	0.066388	0.064304	12.200333
4080.000000	0.060417	0.060210	12.798208
4090.000000	0.060547	0.059675	10.919757
4100.000000	0.058473	0.062378	10.014010
4110.000000	0.051985	0.053106	12.395271
4120.000000	0.052603	0.051983	12.009346
4130.000000	0.056828	0.060202	13.877684
4140.000000	0.055912	0.058546	8.864571
4150.000000	0.052522	0.048412	2.349640
4160.000000	0.051077	0.047854	3.008138
4170.000000	0.053960	0.054369	4.122945
4180.000000	0.050950	0.049678	3.748547
4190.000000	0.048317	0.048014	6.645922
4200.000000	0.042215	0.041535	10.413583
4210.000000	0.046225	0.048300	8.253391
4220.000000	0.047233	0.045130	2.613641
4230.000000	0.050344	0.050807	0.697353
4240.000000	0.049784	0.048148	2.532727
4250.000000	0.047762	0.050236	0.403203
4260.000000	0.052788	0.053273	0.594636
4270.000000	0.053484	0.057430	0.150096
4280.000000	0.053208	0.054404	0.265314
4290.000000	0.054312	0.053758	0.175868
4300.000000	0.052727	0.053981	1.475910
4310.000000	0.058750	0.063112	2.411289
4320.000000	0.058285	0.054824	1.483675
4330.000000	0.056060	0.053239	1.452740
4340.000000	0.054312	0.050678	0.825175
4350.000000	0.057054	0.058189	0.621593
4360.000000	0.064176	0.065216	0.788196
4370.000000	0.065044	0.065823	3.677622
4380.000000	0.057573	0.053883	3.523094
4390.000000	0.061834	0.061171	4.848110
4400.000000	0.065867	0.066342	6.014421
4410.000000	0.069853	0.068604	8.788711
4420.000000	0.065351	0.071885	6.439500
4430.000000	0.071220	0.070466	4.952836
4440.000000	0.065233	0.063945	7.591396
4450.000000	0.072191	0.066951	13.426705
4460.000000	0.073971	0.073412	10.646413
4470.000000	0.080447	0.083060	3.985217
4480.000000	0.078817	0.076698	10.905159
4490.000000	0.078762	0.076574	1.868823
4500.000000	0.078503	0.079993	0.386305
4510.000000	0.068814	0.067787	0.557317
4520.000000	0.081326	0.078197	2.837140
4530.000000	0.080612	0.079300	0.651254
4540.000000	0.086035	0.082481	0.482025
4550.000000	0.082273	0.086427	4.540245
4560.000000	0.084288	0.083958	0.750831
4570.000000	0.086346	0.087739	4.029200
4580.000000	0.077813	0.073679	11.516254
4590.000000	0.082734	0.083297	3.052744
4600.000000	0.087993	0.083766	3.891274
4610.000000	0.082923	0.085320	1.908082
4620.000000	0.083326	0.077958	3.341968
4630.000000	0.078537	0.073836	0.304771
4640.000000	0.091854	0.091374	4.588105
4650.000000	0.074243	0.080515	11.335121
4660.000000	0.082019	0.089192	16.666000
4670.000000	0.071979	0.073824	13.782591
4680.000000	0.077048	0.078013	23.284961
4690.000000	0.085921	0.083427	14.445720
4700.000000	0.075393	0.084802	25.450649
4710.000000	0.072385	0.073502	17.817682
4720.000000	0.078043	0.070355	10.465193
4730.000000	0.064743	0.059099	21.157334
4740.000000	0.076711	0.082382	16.945938
4750.000000	0.075992	0.076205	7.944985
4760.000000	0.085503	0.081521	3.163444
4770.000000	0.077407	0.078371	2.039397
4780.000000	0.078182	0.078709	2.008504
4790.000000	0.080376	0.077520	3.586328
4800.000000	0.087362	0.088340	1.629349
4810.000000	0.084680	0.080655	7.286154
4820.000000	0.089049	0.094403	6.432521
4830.000000	0.093569	0.080959	5.383665
4840.000000	0.092890	0.099697	8.137514
4850.000000	0.089096	0.084210	10.791073
4860.000000	0.088920	0.094792	10.360156
4870.000000	0.099539	0.096170	5.786247
4880.000000	0.103999	0.106942	7.855677
4890.000000	0.100488	0.103882	10.233006
4900.000000	0.096000	0.095178	12.230810
4910.000000	0.083852	0.085513	9.653404
4920.000000	0.099368	0.097364	9.680173
4930.000000	0.106904	0.113992	13.874274
4940.000000	0.108551	0.102829	12.333880
4950.000000	0.103071	0.096673	7.837632
4960.000000	0.098299	0.100768	14.600296
4970.000000	0.105323	0.100376	25.560789
4980.000000	0.125491	0.131641	17.682969
4990.000000	0.108842	0.103024	35.353447
5000.000000	0.112488	0.112564	21.597650
5010.000000	0.095791	0.095487	20.790992
5020.000000	0.106326	0.103488	35.520091
5030.000000	0.132423	0.125712	38.579835
5040.000000	0.121995	0.127679	21.741987
5050.000000	0.108908	0.122453	16.175686
5060.000000	0.116652	0.111156	12.222600
5070.000000	0.133583	0.130147	11.847435
5080.000000	0.135590	0.142337	13.382167
5090.000000	0.136373	0.136844	14.039668
5100.000000	0.140366	0.151386	5.275399
5110.000000	0.132245	0.128663	8.070801
5120.000000	0.141300	0.129179	10.964826
5130.000000	0.146221	0.145021	21.816063
5140.000000	0.152608	0.149325	27.926754
5150.000000	0.134677	0.126918	35.628442
5160.000000	0.128862	0.120198	43.966927
5170.000000	0.134237	0.128205	30.158595
5180.000000	0.136316	0.129175	57.171278
5190.000000	0.145474	0.147982	46.957784
5200.000000	0.142236	0.143437	43.811718
5210.000000	0.144961	0.130178	32.266585
5220.000000	0.124339	0.126872	28.115301
5230.000000	0.133629	0.134212	35.568894
5240.000000	0.128243	0.126518	38.584307
5250.000000	0.122010	0.123964	32.323891
5260.000000	0.121530	0.112393	31.675875
5270.000000	0.101691	0.102169	41.021618
5280.000000	0.107767	0.103956	28.845278
5290.000000	0.111136	0.109499	17.302270
5300.000000	0.106589	0.113698	25.027798
5310.000000	0.099218	0.101252	30.683714
5320.000000	0.104320	0.095882	20.471138
5330.000000	0.093326	0.089615	25.887998
5340.000000	0.103248	0.107322	25.285094
5350.000000	0.106719	0.099130	24.602607
5360.000000	0.095108	0.108273	28.320823
5370.000000	0.081993	0.081807	32.461916
5380.000000	0.094946	0.094260	32.529251
5390.000000	0.095313	0.088602	35.049610
5400.000000	0.093035	0.087699	37.813902
5410.000000	0.091268	0.096128	18.033873
5420.000000	0.084157	0.085323	28.536690
5430.000000	0.081258	0.083100	18.152073
5440.000000	0.082644	0.086564	23.145738
5450.000000	0.085201	0.092405	19.896933
5460.000000	0.080877	0.081127	29.958745
5470.000000	0.078796	0.086984	34.647463
5480.000000	0.078109	0.080363	23.702764
5490.000000	0.074259	0.069585	28.114714
5500.000000	0.079477	0.085251	28.822252
5510.000000	0.079259	0.084530	28.566784
5520.000000	0.095071	0.088438	22.666340
5530.000000	0.075940	0.079702	24.175955
5540.000000	0.072871	0.082510	20.970293
5550.000000	0.073965	0.064883	29.540914
5560.000000	0.071396	0.070565	26.806112
5570.000000	0.068680	0.072151	33.022269
5580.000000	0.071640	0.068890	30.570851
5590.000000	0.068075	0.063918	23.596638
5600.000000	0.061542	0.066429	23.957376
5610.000000	0.065018	0.059357	31.349610
5620.000000	0.060629	0.054756	19.035194
5630.000000	0.063653	0.065314	25.359930
5640.000000	0.063039	0.062571	25.454180
5650.000000	0.059124	0.055809	30.343299
5660.000000	0.061095	0.068868	37.272032
5670.000000	0.059526	0.056938	27.058464
5680.000000	0.062368	0.064569	41.078758
5690.000000	0.070490	0.070607	33.632687
5700.000000	0.065028	0.067674	45.194513
5710.000000	0.055433	0.058727	37.127279
5720.000000	0.062707	0.060479	51.343021
5730.000000	0.059937	0.057898	66.048740
5740.000000	0.057526	0.056731	46.829216
5750.000000	0.059599	0.061190	51.851580
5760.000000	0.054383	0.050722	62.389369
5770.000000	0.064437	0.063984	50.891925
5780.000000	0.061131	0.052829	53.020025
5790.000000	0.059025	0.059529	39.506533
5800.000000	0.058909	0.059533	46.232061
5810.000000	0.059863	0.054260	43.904596
5820.000000	0.063911	0.061828	55.673582
5830.000000	0.069412	0.066816	47.046833
5840.000000	0.061570	0.062320	79.296475
5850.000000	0.064057	0.063439	74.049118
5860.000000	0.068821	0.063496	81.181199
5870.000000	0.066763	0.060833	95.159145
5880.000000	0.076331	0.074689	79.241516
5890.000000	0.070850	0.067092	102.309242
5900.000000	0.076871	0.075889	119.346366
5910.000000	0.082589	0.077955	126.367879
5920.000000	0.084143	0.081396	192.006493
5930.000000	0.082764	0.084537	207.187824
5940.000000	0.087792	0.087409	194.672048
5950.000000	0.084429	0.086173	198.538190
5960.000000	0.089645	0.094574	231.626609
5970.000000	0.094582	0.101183	170.123729
5980.000000	0.091423	0.083720	178.873659
5990.000000	0.086339	0.081000	265.244698
6000.000000	0.105027	0.111463	270.684839
