# Scan parameters: power 16.000000 dBm, bandwidth 1.500000 Hz
# Frequency [MHz]	avg noise	std noise	peak value
10000.000000	1127.282210	2888.587639	2753592.511129
9990.000000	1144.911803	4856.040739	2573658.403331
9980.000000	1228.670967	4750.439922	1487480.816377
9970.000000	1076.973546	3369.890343	2297113.504162
9960.000000	1157.352710	4083.974836	695432.169477
9950.000000	1140.836288	4784.456587	536237.832148
9940.000000	1116.414912	3887.636015	1524387.308945
9930.000000	1156.018948	3829.647704	3867441.018660
9920.000000	1060.278535	3756.541314	6793821.197921
9910.000000	1214.190398	5704.489474	2431587.891548
9900.000000	1068.807421	3973.629848	2650275.295266
9890.000000	1042.083871	4031.557376	1860869.320653
9880.000000	1185.881112	4154.668516	986185.662323
9870.000000	1003.099111	4723.766845	1778459.596037
9860.000000	940.295952	3178.982907	649552.974728
9850.000000	960.671523	2971.918031	2431574.176756
9840.000000	1029.719915	3095.565390	2354248.450562
9830.000000	1003.471496	2870.599470	2717077.456452
9820.000000	1010.501816	3406.142769	2690328.305365
9810.000000	849.547231	2929.556217	857809.040493
9800.000000	815.973752	2288.062963	1308131.687638
9790.000000	809.024707	1800.456359	398782.852647
9780.000000	915.792421	2521.785283	1335720.915721
9770.000000	871.871370	2530.927575	3214166.579995
9760.000000	1012.412459	3157.907339	1141662.474302
9750.000000	930.314376	3028.437755	3218706.986782
9740.000000	901.128494	2695.167637	3759590.612676
9730.000000	871.671527	2470.131535	3174130.561070
9720.000000	809.733107	2310.910303	4580950.762805
9710.000000	821.407328	2670.793887	1384040.838894
9700.000000	796.536059	2033.750570	1493741.655506
9690.000000	826.401430	2010.354792	2091112.102755
9680.000000	777.382540	2028.011045	1669622.731906
9670.000000	865.477873	2498.999544	4088587.285786
9660.000000	848.445497	2151.233536	1729531.852405
9650.000000	950.171577	2745.057565	3041740.409636
9640.000000	816.163457	2042.079055	1661043.119319
9630.000000	912.671082	2497.487009	1070514.354455
9620.000000	800.673338	2683.659672	2010881.737153
9610.000000	869.589757	2208.034941	659738.947640
9600.000000	815.790670	2236.767425	487148.665222
9590.000000	782.620641	1911.468326	314357.724940
9580.000000	800.120282	2014.657561	141278.864927
9570.000000	853.345022	2172.809216	308705.357141
9560.000000	818.868801	2421.847785	222359.873396
9550.000000	874.348581	2533.637467	902432.414523
9540.000000	908.144467	3283.368369	386864.717211
9530.000000	721.347031	1603.304590	293142.708938
9520.000000	868.864849	2396.974240	478535.404611
9510.000000	932.416229	3177.655642	387323.148179
9500.000000	954.676441	2776.500353	1885719.834213
9490.000000	921.353348	2408.352467	1734071.954937
9480.000000	791.377251	1634.619543	1707329.314182
9470.000000	785.941966	1364.680008	1589178.376533
9460.000000	968.758393	2897.123050	405531.488780
9450.000000	918.510506	2058.677704	1454577.839619
9440.000000	1030.074216	3224.287830	1117194.854897
9430.000000	993.359637	3809.175352	1752732.963241
9420.000000	975.301641	2814.500669	1361734.656164
9410.000000	950.695731	3062.371339	828768.006691
9400.000000	1208.525309	3945.524168	1636831.925393
9390.000000	1065.308211	3240.683520	1791669.488573
9380.000000	1083.713346	3149.142186	1781596.748182
9370.000000	905.333703	2042.376088	4844991.497917
9360.000000	1139.774464	3282.984290	2762995.808019
9350.000000	977.086671	2915.285995	4850180.340437
9340.000000	1016.645097	2611.574599	3507626.120345
9330.000000	973.406175	2007.561463	1720962.024625
9320.000000	1150.230584	3436.496085	1980490.493400
9310.000000	995.003101	3447.169401	978463.452108
9300.000000	1021.326732	2591.468046	3139010.434064
9290.000000	1082.357397	3259.216430	3020508.220564
9280.000000	958.450083	1871.387357	2972900.859243
9270.000000	1159.697904	3649.098869	2971919.547716
9260.000000	1060.463410	2721.920704	1400108.967640
9250.000000	909.111151	1890.777761	1862012.487894
9240.000000	1087.330934	3259.708012	356532.476731
9230.000000	1240.048221	4533.092057	154321.825267
9220.000000	1041.522591	3309.511876	1129603.656787
9210.000000	1211.773702	5099.075913	469792.082234
9200.000000	1095.945020	3729.250482	436096.061500
9190.000000	1075.396770	2896.298120	76632.556258
9180.000000	1001.424255	2754.118193	570614.304164
9170.000000	1104.457194	3432.702447	868247.599479
9160.000000	989.982994	2414.697346	678055.978670
9150.000000	1041.481019	2878.940866	928725.807601
9140.000000	1402.699419	6675.115603	1015115.032815
9130.000000	891.537275	2531.230882	645732.558741
9120.000000	1028.673384	2453.781965	1329127.650271
9110.000000	1161.915610	3469.234193	676980.319356
9100.000000	1425.430879	3866.039096	1460172.634563
9090.000000	1005.553503	2763.318039	1111928.649027
9080.000000	1397.893174	6378.770596	960956.020398
9070.000000	1248.235615	5265.650932	930156.037302
9060.000000	1093.673837	3770.844376	211187.018972
9050.000000	1186.758565	3055.926706	520061.515305
9040.000000	1101.378197	4043.246614	9182.368449
9030.000000	1227.572556	3363.103451	170763.683391
9020.000000	1122.976316	3891.704941	727733.213543
9010.000000	1018.101287	3077.501301	290813.073500
9000.000000	1123.935281	2953.518235	378310.172398
8990.000000	1151.634371	3517.709492	204940.152453
8980.000000	1111.665420	3138.531132	152964.177924
8970.000000	1260.089717	4631.234802	229874.586486
8960.000000	1089.205304	3287.926164	75315.049345
8950.000000	1330.372956	5162.762449	286264.545510
8940.000000	1083.043302	3974.241659	132319.592943
8930.000000	1215.777092	4312.881055	396738.177710
8920.000000	1030.393659	3723.916322	862715.528557
8910.000000	1218.888125	3783.770001	236737.395863
8900.000000	1051.194399	3045.946118	249742.416430
8890.000000	1136.460765	4032.741902	576174.947712
8880.000000	1148.281150	3050.400494	397819.315220
8870.000000	1117.796815	4112.349672	774279.430228
8860.000000	1201.345361	3252.071046	312425.752853
8850.000000	1158.447294	4741.044600	432678.022093
8840.000000	1063.048631	3984.800595	408244.116254
8830.000000	994.797879	2065.280837	503910.525566
8820.000000	1057.459755	3271.726611	1208214.956890
8810.000000	1157.686856	4076.214178	252718.840181
8800.000000	1256.973033	4757.126083	715927.431534
8790.000000	1045.282430	3058.792617	1240522.454761
8780.000000	947.290328	2983.247278	764829.255176
8770.000000	1123.478648	3033.936878	138835.884398
8760.000000	1195.762419	3703.892762	9525.048392
8750.000000	1241.002680	4762.398344	14983.381419
8740.000000	1244.344760	4727.765121	225531.409916
8730.000000	1066.585877	3388.409702	377180.153395
8720.000000	1115.197828	4503.820059	831465.222270
8710.000000	1079.318798	3737.327795	216115.534503
8700.000000	1074.350760	2721.638217	141226.860689
8690.000000	1067.770419	2660.460798	203717.898052
8680.000000	978.911950	3003.652156	157708.731555
8670.000000	1022.919235	2489.746471	842958.324751
8660.000000	1099.779045	2891.193608	131467.089627
8650.000000	1113.512054	3360.817887	401723.544995
8640.000000	1090.254157	3772.388554	636121.405440
8630.000000	1073.314866	3418.787566	428489.723468
8620.000000	977.525078	3444.452737	344353.775239
8610.000000	962.609318	3173.831115	39015.159996
8600.000000	1007.225405	3904.833961	138466.175945
8590.000000	1010.239723	3004.576936	80830.638302
8580.000000	899.530543	2265.217296	200762.648245
8570.000000	934.892511	2344.775674	791072.105115
8560.000000	917.367589	2389.533962	325913.330413
8550.000000	979.689005	3121.777789	174212.212105
8540.000000	948.980434	2628.315811	103289.660824
8530.000000	955.186300	2371.377092	13974.752311
8520.000000	929.253553	2336.875713	95381.705171
8510.000000	971.153160	2724.926940	25370.632416
8500.000000	916.443041	2387.989669	103293.241407
8490.000000	747.883421	1863.732313	199733.334328
8480.000000	1030.527385	3143.446368	307441.460175
8470.000000	1051.033068	3039.708208	936224.701674
8460.000000	1041.492469	3520.779985	303786.805467
8450.000000	819.600377	1976.843303	808539.052235
8440.000000	1157.702755	3012.617343	589117.543047
8430.000000	915.277028	1841.358021	254067.887267
8420.000000	968.036081	3211.673770	530792.760674
8410.000000	862.696933	2021.321241	48584.622734
8400.000000	889.731120	1764.751625	162518.726266
8390.000000	841.020401	2366.088744	29596.555986
8380.000000	887.518227	1863.487313	5168.801686
8370.000000	1020.719348	3690.005365	11241.992181
8360.000000	920.026246	2307.135454	125033.158602
8350.000000	1115.666547	3126.557204	290836.473276
8340.000000	992.805356	2381.550248	74258.319353
8330.000000	1008.671305	2440.997470	449375.244459
8320.000000	1020.807030	2369.147662	446246.604307
8310.000000	1106.719081	2983.493206	49269.540128
8300.000000	1009.676627	2486.504312	267716.252324
8290.000000	1108.124036	3246.861762	437511.293963
8280.000000	1003.772984	2093.786814	53798.574634
8270.000000	1014.791239	2797.502163	15602.059157
8260.000000	1147.549598	2958.494473	89115.156229
8250.000000	1065.388629	2935.983109	13816.176518
8240.000000	1154.360187	1986.165106	171971.893362
8230.000000	1149.221028	2464.034873	207642.473021
8220.000000	1079.390217	2249.930177	694733.692088
8210.000000	1185.618288	3184.049542	484817.713450
8200.000000	1009.837675	2024.618890	1487843.192975
8190.000000	1090.341580	2479.481171	1494526.865738
8180.000000	1143.609545	2677.056183	1646789.691928
8170.000000	1136.647584	2264.237340	1817928.770695
8160.000000	1190.423328	2223.052671	152692.820277
8150.000000	1283.828312	2609.661483	1538107.560705
8140.000000	1233.041926	3037.462319	1845441.568578
8130.000000	1454.596101	3947.059936	1093024.453776
8120.000000	1173.129599	3325.140112	1710992.111825
8110.000000	1099.296471	2402.950015	735708.839799
8100.000000	1240.287113	2649.336642	1052985.109448
8090.000000	1017.737811	2141.589788	201785.072617
8080.000000	1135.581266	1964.154315	1078829.012052
8070.000000	1203.297679	3077.302944	4206618.940754
8060.000000	1321.052326	3650.607041	900166.082072
8050.000000	1126.401980	2524.947054	332755.097164
8040.000000	1273.329119	3285.759680	1843894.132259
8030.000000	1207.426904	2928.106298	2507298.986821
8020.000000	1154.520788	2745.010211	1456521.857937
8010.000000	1263.338403	3328.858097	1287012.244251
8000.000000	1281.564735	2646.025281	2811216.589386
7990.000000	1286.023114	3110.148060	769091.232305
7980.000000	1122.703802	2191.953191	228317.470427
7970.000000	1256.518467	2322.088363	836248.141103
7960.000000	1244.095862	2944.811514	276550.648785
7950.000000	1245.665487	2531.833181	1395171.690147
7940.000000	1184.830395	2968.417794	1675309.672933
7930.000000	1271.479203	2859.187936	1250743.706493
7920.000000	1210.632125	3073.993794	1615106.296531
7910.000000	1401.956030	3952.437719	674004.503057
7900.000000	1087.605346	2383.337268	504182.138569
7890.000000	1338.906524	3188.462941	112964.297185
7880.000000	1194.530628	2580.587169	122487.846673
7870.000000	1205.725396	3582.836930	903831.739527
7860.000000	1295.623367	4538.465552	637060.561849
7850.000000	1041.125083	2911.026750	559680.294501
7840.000000	1220.848393	3762.354541	243120.872855
7830.000000	1140.589442	2896.578513	123872.603390
7820.000000	1395.316795	2947.540230	608512.817389
7810.000000	1090.967765	3145.609858	411153.805729
7800.000000	1145.514365	2650.794933	955086.899907
7790.000000	1235.598281	2397.294774	990236.310443
7780.000000	1127.054145	3316.508821	1517141.127375
7770.000000	1164.214269	3487.455127	2427904.078605
7760.000000	1067.450438	2708.736178	544174.210963
7750.000000	1134.626382	3071.405597	761859.468097
7740.000000	1069.891203	2362.406470	360200.522743
7730.000000	1127.211871	3203.029610	234247.067982
7720.000000	1036.606319	1511.964785	10138.935086
7710.000000	1250.317814	2391.671009	85360.661652
7700.000000	1058.642507	2258.614621	500127.517077
7690.000000	987.068116	1734.137256	352408.478414
7680.000000	1224.587258	3179.723820	563113.940740
7670.000000	1127.113570	2407.972405	387786.106380
7660.000000	1121.343107	3012.726366	230702.668520
7650.000000	1134.381749	2766.009630	451163.127824
7640.000000	1097.288345	2235.827316	250069.195889
7630.000000	1160.862481	3356.361582	93504.586188
7620.000000	1075.609281	1824.468948	101357.012962
7610.000000	1056.673136	2286.403294	109903.619062
7600.000000	1223.080566	2060.309033	952611.401341
7590.000000	1158.917069	1833.820304	830922.692120
7580.000000	1215.859412	2482.284451	979189.399615
7570.000000	1036.962119	1974.013811	737977.258349
7560.000000	1116.723746	2633.515730	153983.667772
7550.000000	997.548025	2697.262226	290292.016163
7540.000000	1120.689006	2195.430080	297347.491297
7530.000000	1187.080420	3096.031389	724407.714222
7520.000000	1054.662865	2066.048191	946191.431494
7510.000000	1112.162619	1998.094465	580855.885709
7500.000000	1087.437156	3121.141444	965956.427389
7490.000000	1148.792765	2607.014687	1286696.998865
7480.000000	1241.834901	2912.548716	471415.285571
7470.000000	1294.638654	3055.304531	443270.290963
7460.000000	1267.788626	3162.324449	5531.879086
7450.000000	1364.574904	3434.097073	185801.195749
7440.000000	1105.374849	1926.965770	183372.907184
7430.000000	1297.441026	3221.927488	123919.188840
7420.000000	1310.282795	3370.582035	299339.927585
7410.000000	1357.421607	4425.202547	93324.789661
7400.000000	1106.496436	2463.706772	451072.945336
7390.000000	1172.151487	2646.733649	225444.451022
7380.000000	1451.215702	2901.453796	455020.860125
7370.000000	1223.069192	2837.616045	1803803.788202
7360.000000	1121.455028	2345.528334	673130.702203
7350.000000	1369.654823	3670.112324	1590137.568170
7340.000000	1423.349017	3959.019505	1037080.392727
7330.000000	1456.530243	4707.926870	389356.842947
7320.000000	1262.071145	3188.601619	1064874.892723
7310.000000	1241.445603	3897.780288	327516.594127
7300.000000	1427.019981	3500.725060	514642.187135
7290.000000	1308.200973	3895.305514	617945.853830
7280.000000	1309.671103	2999.989470	584182.456650
7270.000000	1314.954765	3360.100230	904605.671555
7260.000000	1217.744249	3240.049383	321640.997814
7250.000000	1098.083734	2744.724722	570802.396768
7240.000000	1351.124495	3627.588881	577486.153834
7230.000000	1245.846217	3363.631301	523108.441373
7220.000000	1290.555847	4142.254893	607299.568277
7210.000000	1297.504270	2875.208274	244272.340707
7200.000000	1271.960334	3017.901546	681197.023261
7190.000000	1228.686834	3478.746337	539960.478439
7180.000000	1096.692878	2454.911361	130661.384064
7170.000000	1282.792642	3125.304143	27885.021187
7160.000000	1044.801265	2148.092958	112824.045019
7150.000000	1247.548575	2603.185499	210120.555285
7140.000000	1226.682496	2609.668177	503799.854811
7130.000000	963.561626	1972.161289	473338.532445
7120.000000	1004.961303	2577.526859	778259.650397
7110.000000	1051.257094	2677.669776	173313.868117
7100.000000	1075.663536	3009.793930	932026.216042
7090.000000	1092.153912	3055.786759	578619.082795
7080.000000	1192.760704	2907.228616	612904.453225
7070.000000	1147.467828	2826.524463	540785.207557
7060.000000	1119.342057	3350.499063	289036.626836
7050.000000	1082.753765	3311.116067	421876.436535
7040.000000	1141.994508	2898.951185	319234.025198
7030.000000	914.694325	2219.454791	157809.863450
7020.000000	1049.545561	2770.464037	39839.342227
7010.000000	1194.174879	2880.063312	43778.301985
7000.000000	1076.249260	3274.875961	172715.278544
6990.000000	1004.609862	2972.230839	180665.346710
6980.000000	1144.779811	3038.213584	135076.202475
6970.000000	990.178970	2935.943402	227559.292923
6960.000000	1179.249175	3108.419305	108912.108336
6950.000000	1223.031642	3230.867621	274468.302321
6940.000000	1107.770371	3360.733742	139233.605262
6930.000000	1146.330430	4216.383894	198009.132842
6920.000000	1082.500992	3056.644507	271948.683303
6910.000000	1046.202868	3266.351859	180549.565646
6900.000000	1117.906278	3058.839890	933680.521021
6890.000000	967.190531	2858.660807	1021093.863282
6880.000000	1040.928885	2970.055223	544556.496572
6870.000000	944.735587	2370.016384	437940.727718
6860.000000	900.623042	1810.070164	254653.025043
6850.000000	1019.674582	3488.978428	487877.209145
6840.000000	1019.982795	3577.154725	259083.928895
6830.000000	877.213686	2367.909466	229140.567306
6820.000000	968.816779	3199.865042	236388.617318
6810.000000	850.753929	2636.808700	78002.756722
6800.000000	998.882926	2605.529028	86456.283416
6790.000000	1184.000846	3899.675666	7600.765383
6780.000000	851.623191	2081.536240	39282.092250
6770.000000	858.867177	2424.169276	269707.621851
6760.000000	905.948207	1656.800554	81437.573353
6750.000000	950.122116	2556.871235	504590.739645
6740.000000	878.055667	2449.074083	434713.196006
6730.000000	786.161752	1795.023099	448906.009903
6720.000000	952.812867	2344.638006	233814.872204
6710.000000	850.784729	2596.507772	64364.400724
6700.000000	821.765506	2831.861335	409926.064851
6690.000000	814.777391	1592.024783	392124.180782
6680.000000	885.660350	2518.262728	343807.980170
6670.000000	915.341994	3333.993920	1533770.295855
6660.000000	854.772842	2582.437583	1019476.136079
6650.000000	901.922113	3298.828632	2027598.858687
6640.000000	747.120733	1479.921115	1895250.409209
6630.000000	748.726552	1695.278506	1617506.134497
6620.000000	796.206645	1422.688498	3432801.155179
6610.000000	772.591061	1571.677056	863263.471069
6600.000000	712.151673	1346.574757	2230332.214300
6590.000000	873.008178	1663.998711	1433231.369675
6580.000000	827.013676	1641.741179	541713.490646
6570.000000	932.117220	1987.297296	231882.445569
6560.000000	841.507303	2018.527964	18995.398657
6550.000000	729.250304	1670.075749	60792.969314
6540.000000	775.793584	1617.834784	59318.040669
6530.000000	754.773617	1478.368604	99019.162256
6520.000000	775.828725	1416.251577	507762.886953
6510.000000	767.207748	1599.724056	400862.606575
6500.000000	818.363979	1822.861717	1323438.383908
6490.000000	751.924902	1149.142126	2081920.737204
6480.000000	733.478789	1248.575366	1592236.344696
6470.000000	813.624169	1412.306064	1808906.818977
6460.000000	849.546975	1982.861354	582230.584842
6450.000000	855.043578	1750.972001	1272467.690586
6440.000000	773.946578	1777.036378	716228.004203
6430.000000	934.155961	2257.744593	920343.029901
6420.000000	795.599532	1054.895827	1944192.583840
6410.000000	901.051226	1337.558642	1072905.359400
6400.000000	864.157808	967.715627	3185355.282644
