

# As the above finer mazed steps, 6kHz offset
# Scan parameters: power 16.000000 dBm, bandwidth 1.500000 Hz
# Frequency [MHz]	avg noise	std noise	peak value
10000.000000	0.050801	0.055415	11100.396516
9999.000000	0.095455	0.103089	5435.000949
9998.000000	0.040238	0.052208	10106.887986
9997.000000	0.037801	0.052193	10401.842942
9996.000000	0.082221	0.089853	4592.595412
9995.000000	0.032176	0.048860	10616.766253
9994.000000	0.045110	0.065111	9720.592867
9993.000000	0.078012	0.091657	7102.797837
9992.000000	0.024932	0.045274	11305.892577
9991.000000	0.070079	0.071410	8015.798910
9990.000000	0.071832	0.076323	7808.521954
9989.000000	0.025128	0.052127	11272.576053
9988.000000	0.085862	0.102397	7119.851330
9987.000000	0.044964	0.062580	9881.424348
9986.000000	0.031993	0.040977	10573.041617
9985.000000	0.088226	0.085675	4729.894328
9984.000000	0.044059	0.063432	10229.293047
9983.000000	0.039234	0.053146	9978.222580
9982.000000	0.080361	0.075828	5326.098495
9981.000000	0.029387	0.059548	11004.323144
9980.000000	0.063969	0.076364	8122.043840
9979.000000	0.080661	0.081168	7068.189661
9978.000000	0.029102	0.060838	11010.329420
9977.000000	0.073188	0.085675	7341.988177
9976.000000	0.060565	0.062523	7734.055352
9975.000000	0.025863	0.043953	10938.110700
9974.000000	0.090970	0.099956	4879.442761
9973.000000	0.045496	0.060597	9555.446381
9972.000000	0.040269	0.059893	10073.825567
9971.000000	0.083905	0.092372	4412.278549
9970.000000	0.035256	0.055199	10105.590178
9969.000000	0.052071	0.065904	9365.326856
9968.000000	0.091784	0.105036	6572.403241
9967.000000	0.026834	0.052383	10732.345656
9966.000000	0.070325	0.089498	7525.032704
9965.000000	0.066998	0.065318	7329.967294
9964.000000	0.029399	0.054051	10652.172858
9963.000000	0.085526	0.094193	6562.072302
9962.000000	0.050929	0.068178	8914.187852
9961.000000	0.040538	0.067212	9905.228495
9960.000000	0.088357	0.103783	4279.020278
9959.000000	0.038454	0.043565	9486.925033
9958.000000	0.044373	0.059308	9273.114977
9957.000000	0.093249	0.099361	4735.718130
9956.000000	0.034065	0.066464	10200.367025
9955.000000	0.065219	0.067570	7555.837736
9954.000000	0.074956	0.066773	6927.101149
9953.000000	0.031085	0.056656	10129.923125
9952.000000	0.069215	0.072777	6552.097974
9951.000000	0.068560	0.080744	7150.444967
9950.000000	0.031238	0.046094	9866.294333
9949.000000	0.080037	0.077280	4629.640393
9948.000000	0.043766	0.045230	8955.102004
9947.000000	0.050581	0.082140	9158.505111
9946.000000	0.084111	0.086109	4242.651939
9945.000000	0.051106	0.067125	9030.561809
9944.000000	0.062844	0.072509	8215.566501
9943.000000	0.085547	0.084495	6273.814519
9942.000000	0.033987	0.049641	9694.469729
9941.000000	0.078597	0.073622	6762.190421
9940.000000	0.085336	0.104389	6399.190795
9939.000000	0.033495	0.050597	9662.591519
9938.000000	0.084005	0.083822	6222.931585
9937.000000	0.057621	0.064702	8356.034689
9936.000000	0.072756	0.082750	8741.474007
9935.000000	0.094341	0.092991	3947.041352
9934.000000	0.056723	0.072779	8713.401611
9933.000000	0.055773	0.069922	8651.631178
9932.000000	0.087877	0.103345	4373.940504
9931.000000	0.042720	0.057211	9497.630143
9930.000000	0.072106	0.081936	7177.849398
9929.000000	0.086670	0.093240	6309.803978
9928.000000	0.042363	0.068843	9550.304391
9927.000000	0.071510	0.090276	6488.287381
9926.000000	0.065740	0.065560	7007.748288
9925.000000	0.037901	0.057247	9654.054618
9924.000000	0.108633	0.120879	4457.867148
9923.000000	0.052767	0.062840	8691.554513
9922.000000	0.050553	0.054023	8849.013456
9921.000000	0.093302	0.085617	4079.809857
9920.000000	0.046004	0.054122	8960.349172
9919.000000	0.055123	0.065158	8479.236649
9918.000000	0.095605	0.106141	6064.330828
9917.000000	0.038094	0.055465	9881.006099
9916.000000	0.072761	0.081534	6809.616437
9915.000000	0.084822	0.097376	6729.035263
9914.000000	0.033357	0.045929	10039.768340
9913.000000	0.083182	0.085703	6156.592967
9912.000000	0.044864	0.059132	8841.471925
9911.000000	0.046378	0.061436	9623.587762
9910.000000	0.089435	0.081463	4429.061868
9909.000000	0.051126	0.077902	9547.212863
9908.000000	0.049931	0.051742	9232.432554
9907.000000	0.087987	0.100683	5092.666440
9906.000000	0.035330	0.044770	10360.446844
9905.000000	0.071412	0.075440	7750.752600
9904.000000	0.081508	0.081744	6720.511854
9903.000000	0.032306	0.049935	10529.744922
9902.000000	0.078028	0.076732	7115.134428
9901.000000	0.074568	0.091184	7638.760201
9900.000000	0.062445	0.063184	10379.331402
9899.000000	0.078240	0.078562	4952.517295
9898.000000	0.045620	0.057685	9751.524218
9897.000000	0.044269	0.052598	9816.265040
9896.000000	0.090626	0.092518	4367.586411
9895.000000	0.036794	0.042019	10230.732487
9894.000000	0.055662	0.068420	9392.402034
9893.000000	0.087038	0.078734	6722.787357
9892.000000	0.027627	0.042265	10852.256099
9891.000000	0.076063	0.073710	7691.666802
9890.000000	0.071502	0.087270	7663.483068
9889.000000	0.032321	0.055330	10877.683905
9888.000000	0.083246	0.094256	7032.909043
9887.000000	0.050468	0.056262	9337.734608
9886.000000	0.042823	0.048274	10293.481688
9885.000000	0.101576	0.101225	4510.213239
9884.000000	0.047980	0.058962	9911.921498
9883.000000	0.055211	0.065567	9589.927591
9882.000000	0.094847	0.099696	5152.497567
9881.000000	0.036064	0.057835	10799.553709
9880.000000	0.069828	0.075171	8065.776510
9879.000000	0.083416	0.080677	6971.301445
9878.000000	0.034435	0.054379	10700.834549
9877.000000	0.076381	0.082024	7056.683241
9876.000000	0.078004	0.087873	8061.803539
9875.000000	0.038501	0.055359	10370.353828
9874.000000	0.090408	0.089919	4631.179686
9873.000000	0.052759	0.061326	9517.021458
9872.000000	0.047394	0.055047	9457.318132
9871.000000	0.090206	0.101196	4386.680601
9870.000000	0.047152	0.054893	9663.768536
9869.000000	0.052189	0.060122	8810.907427
9868.000000	0.097301	0.099561	6167.077487
9867.000000	0.040948	0.051668	10182.143233
9866.000000	0.083141	0.100060	7169.850665
9865.000000	0.089851	0.090592	6902.053796
9864.000000	0.045429	0.054873	10118.380185
9863.000000	0.093922	0.114177	6216.584002
9862.000000	0.074872	0.088955	8578.093436
9861.000000	0.051967	0.056545	9241.248105
9860.000000	0.090449	0.088195	4164.152748
9859.000000	0.052696	0.056583	9038.340375
9858.000000	0.060301	0.065000	8835.648517
9857.000000	0.107381	0.101728	4332.369275
9856.000000	0.058615	0.061341	9614.289706
9855.000000	0.083618	0.096258	7381.779960
9854.000000	0.087444	0.094086	6456.837771
9853.000000	0.053166	0.063728	9549.222735
9852.000000	0.098711	0.106400	6443.422240
9851.000000	0.094883	0.107827	6960.396355
9850.000000	0.045245	0.047210	9375.487941
9849.000000	0.114356	0.099450	4370.079162
9848.000000	0.073499	0.083091	8415.274865
9847.000000	0.063530	0.076973	8811.899233
9846.000000	0.102102	0.103629	4116.081609
9845.000000	0.065647	0.069529	8937.815251
9844.000000	0.080503	0.087533	8032.454380
9843.000000	0.106766	0.107979	6027.717539
9842.000000	0.057262	0.059088	9488.326442
9841.000000	0.090115	0.102436	6451.641420
9840.000000	0.112719	0.118637	6394.838735
9839.000000	0.053800	0.069422	9460.623404
9838.000000	0.101463	0.101431	6026.685286
9837.000000	0.084856	0.099899	8197.257800
9836.000000	0.069866	0.080816	9109.280124
9835.000000	0.112159	0.104951	4210.599342
9834.000000	0.068596	0.073848	8707.753969
9833.000000	0.076984	0.078506	8662.529497
9832.000000	0.098173	0.095685	4402.203807
9831.000000	0.061828	0.072143	9539.882008
9830.000000	0.093528	0.105004	7121.845655
9829.000000	0.095521	0.101446	6498.565710
9828.000000	0.057397	0.069901	9714.036034
9827.000000	0.097575	0.114091	6491.318020
9826.000000	0.094492	0.092173	6940.318709
9825.000000	0.065673	0.073154	9847.528868
9824.000000	0.113892	0.125474	4820.618305
9823.000000	0.065715	0.064276	8780.341849
9822.000000	0.071269	0.072400	9063.671039
9821.000000	0.101432	0.103268	4056.345058
9820.000000	0.068065	0.074383	9304.324160
9819.000000	0.071026	0.076427	8636.016922
9818.000000	0.107110	0.104411	6098.975328
9817.000000	0.047382	0.052260	9962.036230
9816.000000	0.090098	0.083156	7033.264600
9815.000000	0.099147	0.101360	6755.220903
9814.000000	0.056068	0.062587	9945.330388
9813.000000	0.097645	0.100785	6489.889344
9812.000000	0.069015	0.081468	8624.285966
9811.000000	0.057678	0.072697	9375.338858
9810.000000	0.112555	0.105914	4344.950237
9809.000000	0.061812	0.068181	9271.775582
9808.000000	0.061449	0.061737	8903.518266
9807.000000	0.101069	0.121214	4623.356245
9806.000000	0.043763	0.049387	9977.361132
9805.000000	0.083857	0.100947	7476.273192
9804.000000	0.087547	0.079024	6715.592979
9803.000000	0.045723	0.069939	10042.063476
9802.000000	0.087908	0.093148	6293.961036
9801.000000	0.075943	0.084638	7374.523518
