

# -70dBm from generator, preamp inserted
# Scan parameters: power 16.000000 dBm, bandwidth 1.500000 Hz
# Frequency [MHz]	avg noise	std noise	peak value
10000.000000	14.353697	12.473708	4046822.605556
9990.000000	14.240455	12.615590	4063464.964705
9980.000000	14.446657	12.644433	4043018.039013
9970.000000	14.311041	12.389200	3977047.916317
9960.000000	14.728146	12.852948	3894694.400893
9950.000000	13.908823	11.931056	3842664.811234
9940.000000	13.354960	12.124255	3806293.329712
9930.000000	13.311611	12.251986	3850218.634280
9920.000000	14.323624	12.496243	4000005.176507
9910.000000	15.153728	13.013914	4190881.053079
9900.000000	16.349516	14.329065	4387357.390260
9890.000000	16.320047	13.990281	4556803.857128
9880.000000	16.891109	15.307588	4598972.326006
9870.000000	17.028888	14.810482	4617540.202366
9860.000000	16.243222	14.552157	4603384.588808
9850.000000	16.771880	15.007040	4673998.600730
9840.000000	17.650631	15.907199	4794615.311979
9830.000000	17.512047	16.328527	4975349.385740
9820.000000	19.142539	16.876869	5090506.300004
9810.000000	19.539236	16.934905	5176481.500186
9800.000000	19.188439	16.927567	5248671.448713
9790.000000	18.938188	16.953497	5307924.567804
9780.000000	19.877342	17.215805	5434047.662605
9770.000000	20.530753	17.827078	5581539.051394
9760.000000	20.808073	18.271266	5793238.551304
9750.000000	21.432480	18.718453	6049520.363770
9740.000000	22.393231	20.341266	6216720.433785
9730.000000	22.356085	19.903648	6384658.099885
9720.000000	23.631962	20.782874	6581249.483779
9710.000000	24.592259	21.221041	6754483.313161
9700.000000	25.365203	22.532896	7017037.793451
9690.000000	25.835802	23.024459	7319089.628525
9680.000000	27.952434	24.222197	7643382.053209
9670.000000	27.816382	24.901053	7844405.690601
9660.000000	29.442860	25.451594	8066561.575445
9650.000000	30.394286	26.974671	8167988.115749
9640.000000	31.077807	27.385591	8384816.909506
9630.000000	30.922798	27.638604	8647430.250001
9620.000000	33.761101	28.994244	9023602.159472
9610.000000	33.456698	28.954617	9428346.276252
9600.000000	35.727129	31.501124	9818482.879085
9590.000000	36.383941	32.332123	10109792.662339
9580.000000	36.130183	31.870241	10227792.518437
9570.000000	37.602663	32.738938	10265226.763994
9560.000000	37.939312	33.721743	10340675.082725
9550.000000	31.196866	32.512832	10201180.121761
9540.000000	38.382110	33.609418	10587953.048888
9530.000000	37.895023	32.727190	10721417.573090
9520.000000	38.485826	33.620177	10892903.963451
9510.000000	37.905747	33.112283	11069185.943881
9500.000000	41.391150	36.017089	11237849.358116
9490.000000	40.392557	35.927821	11486160.866164
9480.000000	42.957316	37.448808	11769888.597584
9470.000000	43.886704	38.543193	12059672.176961
9460.000000	42.883044	38.386060	11977133.843236
9450.000000	43.699741	39.014908	11846096.129640
9440.000000	42.518032	37.853345	11637804.678176
9430.000000	40.244904	36.123765	11531659.820264
9420.000000	43.294959	39.109126	11531743.474244
9410.000000	43.471124	38.714886	11822574.347108
9400.000000	43.748920	39.637084	12149158.707082
9390.000000	45.129407	39.700502	12578623.129713
9380.000000	47.430406	41.974555	12737388.888925
9370.000000	45.777391	40.704996	12698830.052459
9360.000000	44.297369	38.591237	12388520.112185
9350.000000	43.147941	38.429948	12024076.533160
9340.000000	43.402810	37.329798	11717025.846593
9330.000000	41.874465	38.116733	11473550.527490
9320.000000	39.378184	35.123445	11261698.590785
9310.000000	39.721551	35.226522	11163222.061562
9300.000000	41.418216	36.625252	11151481.821658
9290.000000	41.354284	36.969799	11327248.215218
9280.000000	41.987005	38.197384	11524179.665883
9270.000000	42.530078	39.334443	11954202.333956
9260.000000	45.519576	39.783605	12380029.281364
9250.000000	45.350015	39.794572	12581487.942493
9240.000000	44.404414	39.323865	12250533.206925
9230.000000	42.942185	37.632477	11782247.478560
9220.000000	40.445644	35.483321	11402159.966770
9210.000000	39.011328	34.414893	11072068.864025
9200.000000	39.885252	34.725706	10880088.362320
9190.000000	41.120996	35.040092	10900109.071265
9180.000000	40.019012	36.209345	11181203.565234
9170.000000	42.202010	38.356547	11501375.140498
9160.000000	43.250461	38.048518	11899228.768972
9150.000000	44.244091	38.988618	12207054.072868
9140.000000	45.290968	39.804033	12384173.131762
9130.000000	44.095982	38.365005	12419693.908522
9120.000000	43.258833	38.561071	12232483.516877
9110.000000	41.794534	36.174356	11838952.996868
9100.000000	41.244585	36.512539	11509637.557833
9090.000000	41.149182	36.790357	11171261.537092
9080.000000	40.559975	35.847412	11067044.331545
9070.000000	41.259958	36.061838	11154838.884685
9060.000000	40.639068	36.040341	11372925.004706
9050.000000	43.007565	39.011383	11818420.114263
9040.000000	43.941442	39.150608	12185170.116292
9030.000000	44.205036	39.567554	12431175.455525
9020.000000	44.845066	39.173790	12370046.121787
9010.000000	42.663312	38.488549	12088478.625977
9000.000000	42.929150	37.179150	11740401.260407
8990.000000	42.384797	36.931052	11420808.144525
8980.000000	39.689692	35.298290	11206703.358513
8970.000000	40.665460	34.792911	11120512.675597
8960.000000	40.902023	35.752930	11147450.129930
8950.000000	41.778446	36.905982	11375388.029476
8940.000000	41.613771	37.602746	11641051.909517
8930.000000	43.367855	39.763845	12219313.279933
8920.000000	47.453704	41.110393	12605972.090051
8910.000000	46.603720	40.405707	12932724.826751
8900.000000	46.773362	39.502548	13049941.657466
8890.000000	44.882682	38.954081	12928499.925745
8880.000000	45.478278	39.821303	12550047.904925
8870.000000	43.494909	39.204777	12096004.490050
8860.000000	44.514850	39.626171	11839790.183029
8850.000000	42.383257	38.740626	11745536.003668
8840.000000	44.659270	38.825376	11920453.360208
8830.000000	43.511175	38.574376	12231254.669430
8820.000000	46.319739	40.273653	12709365.583973
8810.000000	48.633756	41.658883	13185025.513213
8800.000000	47.725576	42.182392	13538847.348450
8790.000000	48.065076	42.013799	13676845.426834
8780.000000	49.364861	43.717547	13549014.260228
8770.000000	46.659434	42.952999	13195128.239402
8760.000000	46.496935	40.813537	12618812.339776
8750.000000	42.586263	37.636829	12079014.208105
8740.000000	42.813814	37.240216	11720690.834980
8730.000000	42.269375	36.722223	11572208.542105
8720.000000	42.055021	38.033732	11745901.888832
8710.000000	44.426063	38.715467	12277178.581450
8700.000000	45.008499	40.268331	12835212.655516
8690.000000	50.204432	44.657188	13230505.677740
8680.000000	49.568791	42.911251	13595814.599994
8670.000000	48.141185	44.275523	13714213.333005
8660.000000	50.192285	44.809561	13458256.283048
8650.000000	47.278602	42.231899	13127568.144445
8640.000000	45.218498	38.370236	12868448.484409
8630.000000	45.585020	40.256589	12626796.405009
8620.000000	46.209607	40.322624	12528164.397860
8610.000000	44.338910	39.464146	12711009.279025
8600.000000	46.154471	40.621650	12900120.944317
8590.000000	47.192710	41.714500	13213827.174680
8580.000000	49.318799	43.739579	13515848.351405
8570.000000	51.403865	46.074268	13991797.319337
8560.000000	51.332210	48.319962	14360282.125780
8550.000000	51.390700	45.543654	14404257.165505
8540.000000	51.987632	44.849378	14087009.596141
8530.000000	48.939031	41.122083	13533999.362209
8520.000000	47.845705	41.150588	13064049.889045
8510.000000	47.017159	41.119837	12757492.567097
8500.000000	44.813183	40.551049	12794191.414336
8490.000000	46.545768	42.256716	13071217.568445
8480.000000	49.744738	44.792020	13581154.938320
8470.000000	52.268708	46.970594	14123616.605401
8460.000000	52.130265	46.791070	14757134.030429
8450.000000	54.384229	48.292727	15126968.418512
8440.000000	54.350152	48.219472	15280317.048370
8430.000000	55.196359	48.664098	15401135.647717
8420.000000	56.755462	49.927996	15320020.667786
8410.000000	55.446760	48.143956	15266006.239720
8400.000000	53.067595	47.753929	15086709.366021
8390.000000	53.486594	48.626388	14946744.676580
8380.000000	55.614546	49.750262	15001436.902248
8370.000000	56.373471	50.771915	15296110.536253
8360.000000	57.003097	49.397642	15797029.978633
8350.000000	60.536471	52.739280	16454328.738233
8340.000000	59.255218	53.104836	17002158.570217
8330.000000	59.594542	52.512887	17252256.725377
8320.000000	64.021324	55.970592	17247810.284552
8310.000000	62.915853	55.946012	17185933.822343
8300.000000	63.337484	56.103590	17046449.103025
8290.000000	63.428650	56.594700	16997669.608756
8280.000000	60.427582	55.210638	17033166.908005
8270.000000	63.898410	57.057832	17298690.379205
8260.000000	61.795385	54.582435	17651954.248196
8250.000000	65.870982	58.415373	17987806.667321
8240.000000	64.467310	57.279712	18436377.144520
8230.000000	67.340307	58.638862	18651260.074532
8220.000000	66.238032	59.130933	19054592.128105
8210.000000	69.948136	61.776841	19248970.488703
8200.000000	70.113685	63.395180	19312171.967808
8190.000000	68.150403	61.006582	19426535.213189
8180.000000	70.491042	61.335525	19201868.688125
8170.000000	70.907290	61.115611	19222976.601316
8160.000000	68.035140	60.011532	19336679.378166
8150.000000	68.853989	60.714810	19700925.297728
8140.000000	73.033313	64.162771	20134528.018793
8130.000000	71.961982	65.089659	20777324.703473
8120.000000	78.268751	69.774659	21089517.365804
8110.000000	78.460945	68.248865	21469645.678325
8100.000000	76.013202	67.658206	21472614.646605
8090.000000	77.575676	69.116326	21513864.934885
8080.000000	77.560755	68.822169	21373786.076921
8070.000000	80.084206	71.137605	21269274.935890
8060.000000	77.684301	68.486694	21495838.603376
8050.000000	80.996143	71.483632	21730972.873529
8040.000000	77.569373	70.477551	22052756.835484
8030.000000	78.099994	69.893558	22193600.407073
8020.000000	83.524019	73.875423	22343840.558217
8010.000000	80.558844	72.915182	22470761.932897
8000.000000	85.269384	76.264594	22490234.765492
7990.000000	81.131255	72.208571	22352904.962937
7980.000000	84.000384	73.353338	22224628.892525
7970.000000	80.183739	70.689801	22260862.691981
7960.000000	83.704206	72.267244	22393881.878338
7950.000000	79.941187	68.921246	22631009.769174
7940.000000	82.046841	73.826820	22708138.120993
7930.000000	80.791840	71.846315	22891542.638522
7920.000000	87.424268	76.926614	23266743.121441
7910.000000	86.446077	77.982073	23579586.083453
7900.000000	87.995322	78.213852	23939421.938450
7890.000000	85.870266	75.240602	24176565.537170
7880.000000	88.474438	76.081355	24045857.763797
7870.000000	88.356929	77.221748	23832280.434580
7860.000000	84.944073	73.994033	23546271.893936
7850.000000	83.134503	75.067913	23475467.532521
7840.000000	86.854007	75.155108	23390617.836765
7830.000000	86.685828	75.663368	23430416.766885
7820.000000	83.807204	73.959904	23848374.445556
7810.000000	87.295094	76.579180	24086573.017978
7800.000000	85.644260	76.194304	24203110.614209
7790.000000	88.553524	76.762731	24145437.419776
7780.000000	87.399901	76.549816	23882651.243042
7770.000000	87.418261	77.063185	23763890.697552
7760.000000	84.055558	75.317145	23921318.574760
7750.000000	87.057530	79.630678	24162793.635650
7740.000000	88.236927	77.870122	24383740.862557
7730.000000	90.514802	77.334353	24443672.031650
7720.000000	88.294537	77.417620	24318645.217215
7710.000000	85.208602	75.911068	24256336.775272
7700.000000	87.537377	77.130707	24207542.161905
7690.000000	89.090805	77.933990	24400816.184453
7680.000000	89.723590	79.773081	24676549.557201
7670.000000	90.586883	81.976410	24768627.149917
7660.000000	88.135283	79.109795	24600205.376965
7650.000000	85.851456	76.874649	24210429.130817
7640.000000	87.744936	77.003697	23779364.926564
7630.000000	88.622328	78.393490	23953945.374761
7620.000000	86.203677	76.601958	24132449.234848
7610.000000	86.009849	75.862662	24554490.318980
7600.000000	90.602939	80.569336	24956322.695712
7590.000000	94.436835	85.299811	25250803.029689
7580.000000	92.482536	82.211903	25589654.336905
7570.000000	95.560673	82.807314	25770952.864121
7560.000000	90.382571	80.875405	25866804.896738
7550.000000	94.084091	83.405352	26048872.568530
7540.000000	93.216534	83.052738	26172623.138269
7530.000000	91.885477	81.833922	26315159.211400
7520.000000	97.194334	83.044023	26092470.887485
7510.000000	93.116417	83.144218	25441924.237641
7500.000000	91.102966	81.225168	24836526.077705
7490.000000	89.797213	79.966363	24504765.010690
7480.000000	89.748397	78.963237	24462655.321256
7470.000000	93.118703	82.454789	25150464.436745
7460.000000	94.745054	83.480663	25872554.214665
7450.000000	92.805232	79.865940	26214702.244115
7440.000000	96.719934	84.311491	26092544.471865
7430.000000	94.521068	82.602455	25937821.014354
7420.000000	90.973362	81.213863	25331612.010354
7410.000000	89.976622	79.817957	24832671.929758
7400.000000	88.570755	78.666280	24440018.545765
7390.000000	88.610476	78.218812	24097745.501362
7380.000000	84.452590	75.053309	23794918.340513
7370.000000	83.562635	75.352086	23364654.129229
7360.000000	85.527930	76.792705	22978491.484066
7350.000000	80.867636	72.964803	22643296.728793
7340.000000	83.465548	73.806553	22574008.660445
7330.000000	79.942190	71.051768	22830864.906393
7320.000000	83.914616	73.628590	22974513.800428
7310.000000	82.695381	71.742027	22775079.127413
7300.000000	81.455958	71.769746	21959702.100996
7290.000000	77.400990	67.297380	21076236.330106
7280.000000	74.007173	65.702730	20101082.151848
7270.000000	70.552566	63.042897	19658050.931191
7260.000000	69.403650	63.882001	19266101.479850
7250.000000	71.224910	63.051227	19394616.350741
7240.000000	70.844072	62.508969	19562733.721229
7230.000000	72.255813	63.799982	20100331.640073
7220.000000	72.548056	63.601343	20104133.229116
7210.000000	70.251815	62.472630	19886539.214489
7200.000000	73.100545	63.644427	19607707.874605
7190.000000	71.732128	61.911185	19297962.805085
7180.000000	67.760087	60.199100	18866404.903643
7170.000000	66.256954	58.413969	18344060.292037
7160.000000	62.320572	55.722048	17676870.674009
7150.000000	59.996436	54.470638	17041701.659553
7140.000000	61.771082	54.098021	16717041.526544
7130.000000	58.017194	51.810701	16322282.731037
7120.000000	58.880283	51.885532	16100201.882021
7110.000000	58.062624	50.430240	16125154.484924
7100.000000	60.142752	50.791435	16133359.034005
7090.000000	57.341294	49.686676	15900373.711343
7080.000000	56.831880	47.853471	15498717.169877
7070.000000	53.793109	47.643469	14921694.066767
7060.000000	51.401452	44.787533	14359167.551668
7050.000000	50.006671	44.704117	14089350.188488
7040.000000	51.580250	45.890133	13985735.557725
7030.000000	51.421839	44.374973	13850844.591170
7020.000000	48.548218	43.596340	13873143.999906
7010.000000	49.598087	44.028168	13705690.871882
7000.000000	48.826645	45.199026	13581525.637465
6990.000000	49.582544	44.279886	13578836.560638
6980.000000	47.844107	41.820760	13489073.506213
6970.000000	47.647766	41.628739	13160753.202087
6960.000000	47.515265	42.097815	12859170.629440
6950.000000	46.015746	41.076764	12626092.871225
6940.000000	44.423691	39.848627	12341867.381092
6930.000000	43.326904	37.753219	12054918.304778
6920.000000	44.396735	38.338587	11856862.047557
6910.000000	43.591202	37.740419	11782862.463220
6900.000000	42.310743	37.876987	11795658.300236
6890.000000	42.176653	38.514179	11916329.557425
6880.000000	41.682386	36.809721	12041363.468978
6870.000000	42.504224	38.239319	12011867.467730
6860.000000	45.214413	39.853158	11850294.784549
6850.000000	42.474369	36.172011	11697609.869489
6840.000000	40.691840	36.042823	11566548.611325
6830.000000	40.832117	35.968158	11504378.643721
6820.000000	42.899479	37.992401	11460659.753156
6810.000000	41.723899	35.750649	11414797.827145
6800.000000	41.192189	35.967372	11354465.791186
6790.000000	41.546488	35.840060	11355243.209901
6780.000000	39.340483	35.006067	11351762.176970
6770.000000	42.618392	36.666007	11375241.428818
6760.000000	40.321447	37.131497	11471891.734760
6750.000000	41.171795	36.428630	11444337.305653
6740.000000	41.243345	35.888377	11439576.812241
6730.000000	39.790558	35.960364	11358353.731157
6720.000000	41.232944	35.047220	11304248.650952
6710.000000	40.041251	35.651448	11312868.535497
6700.000000	43.258200	37.534219	11279316.945349
6690.000000	76.378609	91.709173	11025448.344410
6680.000000	43.301561	37.453856	11442062.675405
6670.000000	41.492169	36.611214	11636094.156570
6660.000000	43.603298	37.894443	11809944.819616
6650.000000	44.293182	38.859031	11910990.366052
6640.000000	43.428811	38.917342	12081015.362787
6630.000000	44.645267	39.006730	12105847.236205
6620.000000	42.435663	37.788380	12231245.355778
6610.000000	44.053702	37.914343	12314539.360497
6600.000000	44.320665	39.249394	12374875.286309
6590.000000	45.402164	40.512880	12459413.392811
6580.000000	45.680878	40.910440	12592758.249260
6570.000000	46.634732	39.246796	12780424.555124
6560.000000	44.950424	40.038169	12876030.716897
6550.000000	23.158444	20.723123	7057670.484260
6540.000000	0.000276	0.000396	0.022485
6530.000000	0.000252	0.000302	0.020193
6520.000000	0.000234	0.000267	0.024424
6510.000000	0.000257	0.000405	0.023790
6500.000000	0.000244	0.000373	0.021096
6490.000000	0.000247	0.000420	0.020086
6480.000000	0.000256	0.000333	0.024436
6470.000000	0.000246	0.000476	0.022930
6460.000000	0.000257	0.000341	0.026399
6450.000000	0.000243	0.000379	0.017356
6440.000000	0.000277	0.000352	0.027649
6430.000000	0.000282	0.000478	0.021030
6420.000000	0.000281	0.000352	0.026197
6410.000000	0.000292	0.000502	0.023758
6400.000000	0.000264	0.000332	0.023123
6390.000000	0.000234	0.000407	0.022313
6380.000000	0.000269	0.000488	0.024304
6370.000000	0.000246	0.000358	0.019876
6360.000000	0.000234	0.000333	0.023237
6350.000000	0.000273	0.000367	0.024103
6340.000000	0.000245	0.000452	0.025993
6330.000000	0.000255	0.000282	0.019098
6320.000000	0.000253	0.000390	0.028768
6310.000000	0.000261	0.000383	0.013870
6300.000000	0.000257	0.000313	0.022434
6290.000000	0.000278	0.000402	0.022488
6280.000000	0.000250	0.000303	0.023582
6270.000000	0.000245	0.000372	0.025093
6260.000000	0.000257	0.000542	0.026222
6250.000000	0.000294	0.000525	0.026474
6240.000000	0.000218	0.000255	0.022007
6230.000000	0.000251	0.000322	0.028039
6220.000000	0.000256	0.000400	0.020686
6210.000000	0.000241	0.000320	0.024134
6200.000000	0.000252	0.000416	0.016920
6190.000000	0.000263	0.000371	0.021946
6180.000000	0.000255	0.000244	0.018234
6170.000000	0.000247	0.000306	0.024057
6160.000000	0.000272	0.000318	0.021988
6150.000000	0.000246	0.000292	0.022984
6140.000000	0.000258	0.000519	0.028437
6130.000000	0.000279	0.000455	0.027674
6120.000000	2.026952	1.099597	41.821043
6110.000000	0.100438	0.086322	26626.082971
6100.000000	0.101328	0.088906	26962.556231
6090.000000	0.099894	0.087794	26747.278100
6080.000000	0.101500	0.088412	26523.051975
6070.000000	0.095786	0.084715	26146.994290
6060.000000	0.102586	0.085815	26257.884545
6050.000000	0.093188	0.083492	26452.215612
6040.000000	0.101965	0.089143	27007.009650
6030.000000	0.097733	0.087247	27026.403505
6020.000000	0.105482	0.091681	26924.828055
6010.000000	0.097499	0.086111	26849.469320
