

# 
# Scan parameters: power 16.000000 dBm, bandwidth 1.500000 Hz
# Frequency [MHz]	avg noise	std noise	peak value
10000.000000	180.011360	166.053518	423159.975857
9990.000000	180.181907	189.216047	417445.336436
9980.000000	183.368719	203.683713	393468.122017
9970.000000	183.321898	197.162663	392488.327326
9960.000000	180.762846	161.656899	322998.572755
9950.000000	164.631517	160.418780	271989.824567
9940.000000	182.828378	180.717919	302896.033321
9930.000000	203.568917	200.263740	281020.870408
9920.000000	184.083464	179.475908	338876.721840
9910.000000	224.897422	219.742340	339267.597441
9900.000000	199.913119	176.287936	429835.095155
9890.000000	208.372153	193.172730	426987.263832
9880.000000	222.802336	228.145570	396046.808340
9870.000000	198.491413	204.565789	357763.798498
9860.000000	215.971358	221.531665	256630.975253
9850.000000	214.168317	193.599473	260350.026161
9840.000000	224.077438	224.016365	286151.314365
9830.000000	262.252544	264.761848	286474.391116
9820.000000	226.233315	219.778697	390172.306402
9810.000000	248.773700	251.739024	480013.595957
9800.000000	241.177756	240.867583	474224.237999
9790.000000	259.297087	248.898965	550494.704263
9780.000000	237.398964	236.808804	634254.087183
9770.000000	261.780994	260.560327	624023.129081
9760.000000	261.496951	256.299615	643846.108505
9750.000000	270.987790	278.730760	699107.524707
9740.000000	281.517409	285.801600	582115.240848
9730.000000	293.751562	297.394154	583605.490897
9720.000000	311.168341	302.595161	533652.757266
9710.000000	318.288858	320.091961	531516.292247
9700.000000	306.505113	298.109485	578949.690561
9690.000000	291.824151	267.778981	532227.191655
9680.000000	330.063360	318.682236	673818.139868
9670.000000	346.569672	318.065917	720443.893600
9660.000000	375.059418	322.392352	789827.167818
9650.000000	332.285393	320.959331	769309.746100
9640.000000	354.066192	343.794505	1031451.239127
9630.000000	348.513502	366.461836	1154142.804984
9620.000000	330.098877	324.604969	994750.190663
9610.000000	399.825831	420.789103	1097849.843895
9600.000000	336.942880	331.580212	965931.519839
9590.000000	374.621266	379.043479	753011.437378
9580.000000	450.707380	457.663378	800686.761896
9570.000000	428.837481	468.520308	710736.880943
9560.000000	390.673786	387.883975	710530.846540
9550.000000	435.533354	420.926593	884671.749811
9540.000000	402.617281	377.334415	1106023.682207
9530.000000	430.106627	460.145266	1293013.927125
9520.000000	509.620473	492.698833	1497260.445818
9510.000000	456.798203	435.873925	1610968.660897
9500.000000	462.981825	423.337942	1594545.588525
9490.000000	512.301842	508.238620	1529604.974365
9480.000000	446.130344	413.411866	1548665.669498
9470.000000	524.546724	451.210438	1383589.196874
9460.000000	476.675330	429.533221	1262574.059321
9450.000000	511.350837	507.803165	1148689.742642
9440.000000	509.321517	565.179283	952485.385939
9430.000000	567.924200	693.075949	942174.211839
9420.000000	521.707231	524.967567	879580.130664
9410.000000	568.556584	539.623787	797415.086396
9400.000000	553.564590	543.991657	786952.834279
9390.000000	489.726423	487.377704	769474.524327
9380.000000	532.854412	490.768804	1134489.720860
9370.000000	594.068127	562.628156	1201175.882206
9360.000000	621.945326	613.767111	1406538.362733
9350.000000	541.462023	499.044847	1403719.730649
9340.000000	613.914004	589.889646	1388178.035589
9330.000000	493.791356	497.222448	1435614.695203
9320.000000	503.661430	478.622028	1224827.069714
9310.000000	536.546298	611.605456	1249327.945649
9300.000000	560.781201	559.698245	1173477.014807
9290.000000	540.988256	500.690317	1337927.109168
9280.000000	602.699370	545.547738	1199391.810140
9270.000000	506.608803	474.025591	1213397.392133
9260.000000	590.101644	542.011365	1161063.758218
9250.000000	522.807395	511.402881	948315.774521
9240.000000	549.847504	542.104639	857255.483054
9230.000000	571.170979	580.301437	854402.465921
9220.000000	497.968403	498.073345	937153.846615
9210.000000	468.133948	453.700531	1098062.457356
9200.000000	531.307661	519.920807	1250056.064335
9190.000000	491.600644	554.290028	1555315.584741
9180.000000	577.172230	507.092335	1574396.141531
9170.000000	544.484960	536.401899	1643262.290398
9160.000000	498.687134	533.952269	1636679.947707
9150.000000	574.546654	573.743332	1749100.596518
9140.000000	609.855956	627.074347	1853815.538400
9130.000000	520.657003	480.925527	1734468.905135
9120.000000	578.996382	607.171471	1796377.054790
9110.000000	507.519945	456.441030	1678252.292090
9100.000000	541.985173	574.014457	1297663.015986
9090.000000	550.825612	654.330378	1161970.229638
9080.000000	528.883025	527.296075	896108.359060
9070.000000	617.138619	696.697696	742060.884760
9060.000000	538.749178	509.264401	716312.652409
9050.000000	567.416708	546.930558	806758.091170
9040.000000	520.685321	540.508714	1041937.688959
9030.000000	572.688820	587.450875	1159196.328909
9020.000000	466.741058	532.563221	1251036.963028
9010.000000	560.449909	548.270705	1239593.552010
9000.000000	566.124854	594.999963	1197232.037488
8990.000000	515.834925	579.494603	1457578.247762
8980.000000	492.447294	496.084698	1482352.311253
8970.000000	515.325777	511.864128	1511239.925398
8960.000000	501.440037	528.498609	1370233.062025
8950.000000	539.686902	607.965812	1316184.328039
8940.000000	460.261893	560.847131	1338050.786201
8930.000000	590.690834	586.163928	1258710.252401
8920.000000	483.996208	472.086704	1191849.158520
8910.000000	541.877564	491.605225	1026531.376958
8900.000000	485.710214	472.005561	943057.058340
8890.000000	529.313103	557.554855	725560.506269
8880.000000	538.424752	605.369362	921291.794530
8870.000000	536.964381	522.923445	1035007.505350
8860.000000	517.815565	506.905311	1569009.583721
8850.000000	497.850954	490.818982	1843847.339939
8840.000000	460.959260	443.611752	2229384.580516
8830.000000	548.911276	543.965820	2532010.007387
8820.000000	612.301716	597.953217	2660171.184010
8810.000000	474.173674	414.116451	2705345.199986
8800.000000	507.734270	597.263351	2675718.804241
8790.000000	470.793869	478.471284	2301297.804144
8780.000000	559.193009	572.498118	2093936.791992
8770.000000	596.640627	531.391766	1605946.533093
8760.000000	494.074117	522.524422	1158533.959315
8750.000000	483.629685	468.709544	914506.224899
8740.000000	550.793848	555.331082	711861.777460
8730.000000	569.122193	555.577705	852571.089667
8720.000000	538.348055	566.929180	986003.591725
8710.000000	486.064434	458.393870	1309599.512820
8700.000000	539.106382	530.876136	1612000.017410
8690.000000	476.552895	444.655378	1707835.063182
8680.000000	519.359370	526.015366	1881735.357384
8670.000000	506.476735	457.997408	1923127.081185
8660.000000	515.397507	504.355790	1633499.278231
8650.000000	509.693553	468.850999	1198393.615668
8640.000000	489.121072	469.842137	500542.554147
8630.000000	472.762454	517.489065	857033.550298
8620.000000	496.989052	539.694511	589832.924820
8610.000000	488.399958	524.307553	680125.851592
8600.000000	519.116997	500.751900	566350.297797
8590.000000	511.910607	526.184153	652973.084135
8580.000000	528.977705	518.060519	748198.044301
8570.000000	482.981021	445.659004	936657.697806
8560.000000	517.692514	465.373722	1141406.097855
8550.000000	508.482433	540.681675	1305180.844211
8540.000000	518.746852	479.506247	1514384.168446
8530.000000	524.435458	562.406839	1458276.820251
8520.000000	498.518435	487.701934	1386253.171224
8510.000000	521.580606	509.799318	1387476.617642
8500.000000	530.027643	532.722332	1090073.188652
8490.000000	520.761038	498.946796	1005404.375231
8480.000000	595.395364	632.989258	1023427.315277
8470.000000	564.381354	525.177463	943946.605595
8460.000000	533.277708	515.498336	1119778.731406
8450.000000	482.251834	481.728492	1143330.415669
8440.000000	565.513449	600.293872	1227840.513901
8430.000000	531.015828	528.099030	1279537.060817
8420.000000	510.352079	473.153209	1323201.568037
8410.000000	541.078018	578.705243	1293078.157818
8400.000000	557.103033	533.692368	1100993.613657
8390.000000	595.649465	605.525693	1275931.719335
8380.000000	539.405752	555.599613	1250879.383542
8370.000000	505.655104	486.297931	1424072.554824
8360.000000	590.085567	576.796005	1934743.018561
8350.000000	571.817092	565.792360	2064750.847855
8340.000000	624.650896	683.806222	2249386.943418
8330.000000	629.926149	641.653961	1994177.896350
8320.000000	625.180061	554.752390	1751841.459368
8310.000000	558.433334	552.790854	1486077.076534
8300.000000	634.667677	636.084304	1091970.936157
8290.000000	634.965725	612.249075	967941.884625
8280.000000	655.672614	682.474482	1013619.696389
8270.000000	669.106106	695.887533	1261865.164316
8260.000000	635.395669	636.512333	1731118.338166
8250.000000	607.344034	570.478882	1803088.871171
8240.000000	697.712078	710.586850	1993146.140953
8230.000000	639.355040	628.759603	2009568.276840
8220.000000	610.343783	638.374508	1854407.448412
8210.000000	763.093898	680.414209	1751830.426963
8200.000000	626.800060	606.422088	1518951.910698
8190.000000	719.214968	720.942850	1251644.093611
8180.000000	745.995897	675.165638	1129684.244936
8170.000000	785.688415	791.217221	1250841.135636
8160.000000	646.704626	633.161738	1272895.146111
8150.000000	745.649439	842.351931	1383138.826009
8140.000000	777.332513	691.661514	1551127.759510
8130.000000	703.528145	666.791024	1576418.633704
8120.000000	794.075345	774.588594	1586482.540981
8110.000000	665.264948	635.345915	1673504.148030
8100.000000	778.667064	873.798061	1793649.441713
8090.000000	643.925794	641.112040	1700232.730151
8080.000000	746.012495	766.401194	1714262.874234
8070.000000	761.191543	805.156631	1502872.728170
8060.000000	742.717152	796.865094	1769625.921973
8050.000000	836.467809	825.159200	1705789.042873
8040.000000	835.163572	838.460699	1850490.235663
8030.000000	728.391279	676.320309	1695081.734997
8020.000000	689.732325	694.056396	1646774.135451
8010.000000	868.418629	793.076558	1505279.308135
8000.000000	829.159651	805.617681	1369407.032867
7990.000000	741.594496	683.028822	1319158.730370
7980.000000	910.664616	941.605265	1307467.864010
7970.000000	766.320874	754.648288	1236045.840997
7960.000000	769.225081	777.361685	1352858.880299
7950.000000	915.968544	911.133014	1631474.162650
7940.000000	779.296998	794.975042	1756960.678228
7930.000000	804.687397	773.819682	2285607.214932
7920.000000	798.688263	805.103147	2064907.149449
7910.000000	820.889202	906.913670	2248753.155818
7900.000000	824.148486	893.432397	2391044.687014
7890.000000	817.697832	755.222426	2293882.467394
7880.000000	861.295077	798.836643	2024561.175754
7870.000000	780.621401	784.953409	1969793.803185
7860.000000	755.982719	798.265133	1950488.543745
7850.000000	795.544416	757.448445	1853141.881879
7840.000000	867.548848	887.318324	2143181.727143
7830.000000	773.607267	715.407301	2090358.838176
7820.000000	871.099615	835.726911	2132498.719594
7810.000000	844.746941	753.415652	2086688.148593
7800.000000	893.935020	851.663287	1875936.431229
7790.000000	812.248748	718.909294	1592439.804609
7780.000000	827.829545	850.053216	1584949.158942
7770.000000	818.435954	875.390649	1317934.157390
7760.000000	827.268067	852.206057	1276498.247052
7750.000000	787.099281	777.897065	1274882.846040
7740.000000	803.007939	776.081730	1445984.657666
7730.000000	842.289462	918.678866	1838774.428714
7720.000000	750.819238	699.956726	1987039.856545
7710.000000	832.775301	866.465928	2357164.715987
7700.000000	880.279439	953.775601	2448921.667451
7690.000000	823.435711	825.977334	2713891.146096
7680.000000	846.452093	826.196472	3108865.145050
7670.000000	919.198066	887.672557	3155622.395984
7660.000000	859.469390	851.643758	3141796.571786
7650.000000	643.702906	688.567817	2733737.676043
7640.000000	845.962359	756.086877	2551204.116830
7630.000000	771.748377	886.809527	2275904.506609
7620.000000	869.513387	871.836334	1938068.370912
7610.000000	798.798681	844.839956	1836462.814700
7600.000000	793.116106	795.412797	1554842.790498
7590.000000	874.768083	830.623803	1380630.944653
7580.000000	862.080557	860.917377	1415468.446112
7570.000000	849.144862	782.162867	1491798.034640
7560.000000	881.013374	918.474808	1839529.042300
7550.000000	1018.542305	1033.386040	1859175.232773
7540.000000	884.184563	870.183253	2053182.818871
7530.000000	853.216535	892.683150	2152006.938932
7520.000000	915.514022	935.351168	1971270.675009
7510.000000	987.495917	990.774297	1837916.017783
7500.000000	899.144274	759.478558	1749269.945516
7490.000000	936.364143	1052.480471	1750947.396378
7480.000000	852.813157	881.913993	2040287.703261
7470.000000	898.342159	866.541823	2395987.328429
7460.000000	899.443647	851.398508	2379798.993231
7450.000000	1002.557010	950.384945	2488524.156262
7440.000000	994.545996	946.106380	2413970.984646
7430.000000	895.757296	923.494330	2460785.451950
7420.000000	903.211625	866.882031	2427523.155537
7410.000000	825.653721	795.240925	2266939.774081
7400.000000	950.732169	1005.421742	1718628.827947
7390.000000	794.588766	854.671271	1800202.987298
7380.000000	744.961292	762.899103	1601779.077171
7370.000000	848.882782	882.803775	1394395.962633
7360.000000	765.063418	815.270197	1629969.987240
7350.000000	697.706547	721.498908	1630599.520154
7340.000000	824.982045	930.742440	1883269.849233
7330.000000	738.046107	719.502314	1800806.975629
7320.000000	835.396706	777.414892	1762268.515722
7310.000000	722.335280	719.133467	1518733.597695
7300.000000	734.099639	689.137631	1530379.047987
7290.000000	880.933077	829.338861	1451138.440562
7280.000000	748.282834	647.942608	1423083.004842
7270.000000	796.451263	743.481382	1310679.366873
7260.000000	735.786045	801.642973	1520645.693799
7250.000000	783.642809	856.217274	1887103.197562
7240.000000	722.040747	688.962478	1781168.936001
7230.000000	588.055810	533.783755	1934424.578317
7220.000000	783.055793	736.927924	2029398.829694
7210.000000	714.495305	704.180126	1884530.760899
7200.000000	716.264979	655.580207	1921844.055108
7190.000000	681.899999	639.446007	1798492.568549
7180.000000	631.810558	666.640272	1757127.024225
7170.000000	692.760592	645.403663	1565849.893536
7160.000000	652.091970	646.838920	1281481.191064
7150.000000	637.185209	568.257665	1278677.581651
7140.000000	601.933097	556.902932	1204134.002152
7130.000000	630.956841	613.675483	1298512.433822
7120.000000	534.800831	528.613913	1070150.051105
7110.000000	574.673160	618.093788	992436.247202
7100.000000	567.813226	611.091147	852786.006647
7090.000000	541.533336	555.180106	862464.335239
7080.000000	463.551842	434.143782	912063.958907
7070.000000	536.116198	569.087763	896396.435773
7060.000000	527.395659	539.860261	1114552.435618
7050.000000	520.313476	453.188135	1168501.062142
7040.000000	408.009346	422.895020	1183304.821534
7030.000000	455.838627	417.849832	1312395.475197
7020.000000	449.757614	449.907432	1419093.167915
7010.000000	459.892574	476.245414	1184674.099261
7000.000000	458.922573	458.985915	1203637.931671
6990.000000	472.889143	486.132199	1049675.953258
6980.000000	450.041351	396.504829	1185530.922623
6970.000000	508.437334	469.408880	1205976.971633
6960.000000	417.254614	424.742417	1285002.018274
6950.000000	415.066347	413.492681	1322164.240814
6940.000000	478.965627	480.708293	1398797.088403
6930.000000	402.363977	379.065390	1329312.383514
6920.000000	445.739825	430.096758	1170670.004595
6910.000000	425.695386	413.182228	1231060.577447
6900.000000	442.701130	471.626696	882843.322126
6890.000000	427.681263	446.570937	850816.840896
6880.000000	409.073661	441.102868	878574.280348
6870.000000	403.687374	437.444289	780617.995120
6860.000000	384.767072	353.239874	828828.276852
6850.000000	426.183069	383.757144	862748.710248
6840.000000	430.495405	430.530472	973090.094949
6830.000000	355.520253	331.678234	917102.529707
6820.000000	411.678141	405.575351	945333.052275
6810.000000	331.032748	325.670998	1008741.382760
6800.000000	339.789924	331.525763	762810.502839
6790.000000	443.720772	469.696691	686618.198118
6780.000000	343.947295	350.908351	708099.783704
6770.000000	334.582051	373.376231	814248.998666
6760.000000	346.213499	321.899635	810303.247268
6750.000000	391.432603	399.703616	803541.819367
6740.000000	353.634607	330.066184	684965.193124
6730.000000	389.508786	350.043875	649501.209723
6720.000000	366.369311	356.961439	534749.859123
6710.000000	368.428148	422.976662	649870.411084
6700.000000	380.672676	401.773573	837730.805471
6690.000000	406.421648	421.849598	786711.868855
6680.000000	407.223627	378.938683	863394.266448
6670.000000	351.610579	337.061818	997338.340025
6660.000000	410.598055	424.218775	1083242.642223
6650.000000	372.941880	372.568616	1013298.676947
6640.000000	364.719729	323.491699	1133819.720172
6630.000000	456.140780	464.700383	1105027.723814
6620.000000	373.422442	389.466881	978168.937497
6610.000000	362.625997	353.814722	808796.562406
6600.000000	408.830193	411.265489	821098.554171
6590.000000	391.399508	407.035243	756169.986159
6580.000000	402.406964	405.480279	549628.483410
6570.000000	393.576412	377.605468	499903.183331
6560.000000	413.941039	414.561292	650010.829745
6550.000000	402.729370	382.714610	709852.481428
6540.000000	355.689017	324.744228	825223.027520
6530.000000	368.033245	379.356213	817685.017859
6520.000000	358.724892	387.122889	873480.283498
6510.000000	373.548474	392.420030	844039.729844
6500.000000	377.752293	372.917272	1029363.399406
6490.000000	399.713206	342.218688	878433.260338
6480.000000	396.848446	382.889122	790808.947468
6470.000000	385.950313	412.212596	688698.006922
6460.000000	400.659188	399.044681	531916.816297
6450.000000	420.882577	430.303095	462651.566510
6440.000000	381.973058	383.461127	412430.600733
6430.000000	424.388678	435.928813	539322.572285
6420.000000	435.017708	409.118372	561508.150716
6410.000000	401.224384	386.034434	809915.093009
6400.000000	436.641796	421.516949	1133760.361648
6390.000000	504.237484	490.327454	1340796.763659
6380.000000	417.722028	434.339613	1404999.313040
6370.000000	415.494168	414.547394	1421265.892199
6360.000000	475.760672	461.562645	1362185.847512
6350.000000	407.282415	399.932196	1326485.359259
6340.000000	421.212968	460.995602	1223650.952264
6330.000000	485.271515	522.749347	1104648.449456
6320.000000	431.473932	440.876670	888084.914094
6310.000000	486.945790	537.616698	781863.038439
6300.000000	572.187521	600.639227	799107.007862
6290.000000	513.448926	490.618747	987906.801746
6280.000000	538.478594	522.002067	1258998.527190
6270.000000	517.296022	513.166377	1383254.202985
6260.000000	466.778534	423.722120	1384117.177916
6250.000000	628.001515	610.973490	1465203.100072
6240.000000	502.927268	465.576315	1594775.351829
6230.000000	532.266190	546.470022	1750712.861957
6220.000000	530.277697	469.449947	1326018.360813
6210.000000	514.226980	535.233149	1106606.279545
6200.000000	583.258297	559.289283	1095276.623240
6190.000000	567.783444	567.841291	3003472.839583
6180.000000	610.159702	692.919677	3668997.360110
6170.000000	636.522392	655.568104	3460166.024113
6160.000000	631.661674	589.760458	2904856.308493
6150.000000	588.603529	560.347747	2737980.446064
6140.000000	620.665943	584.966017	2661990.753880
6130.000000	664.502417	590.037809	1997376.457320
6120.000000	740.814989	691.537163	1065816.140865
6110.000000	686.350742	715.413949	634014.670543
6100.000000	675.702974	624.343855	597299.253126
6090.000000	669.998506	723.055669	1016681.960328
6080.000000	794.764840	798.465500	2217101.433901
6070.000000	626.304230	595.917218	4645586.544209
6060.000000	620.462434	485.941001	7441641.050629
6050.000000	775.119628	799.855757	9953655.012665
6040.000000	699.049568	692.252365	12490857.378754
6030.000000	719.009067	615.233119	16920633.404509
6020.000000	723.366206	716.398551	15716768.149621
6010.000000	888.516275	803.502033	14506276.685354
6000.000000	770.448027	798.580413	10612722.372865
5990.000000	792.829947	725.310016	6404522.380106
5980.000000	761.242601	854.426400	3772278.618954
5970.000000	771.452144	837.146887	1913601.597340
5960.000000	795.972153	783.133024	545101.524352
5950.000000	755.755721	766.425887	211092.733612
5940.000000	817.490286	879.336438	849352.653812
5930.000000	861.642037	867.997315	1556235.042751
5920.000000	791.984382	823.471313	2715285.046165
5910.000000	658.903156	697.583068	3497485.765631
5900.000000	760.490912	756.101345	3794858.200372
5890.000000	805.834820	814.722092	3834540.725665
5880.000000	729.707552	728.090891	4186316.868500
5870.000000	800.390692	782.766619	3398999.951496
5860.000000	650.784295	609.039810	2162605.305381
5850.000000	777.671506	810.548220	1920178.904002
5840.000000	712.797357	760.861041	1018985.767173
5830.000000	741.216753	678.675167	1176299.006196
5820.000000	784.459313	866.630879	1422613.391064
5810.000000	778.046095	681.009245	1728261.421025
5800.000000	700.778793	745.263645	1417286.132113
5790.000000	701.596823	766.531806	1384985.345814
5780.000000	683.202381	665.304281	1266776.448795
5770.000000	804.411655	789.035545	1473027.574765
5760.000000	654.572258	623.941878	2026178.732067
5750.000000	720.127356	746.291432	2259669.328630
5740.000000	679.076673	628.368907	1982353.398530
5730.000000	720.629740	691.119969	1324673.994412
5720.000000	680.139026	630.562730	1039042.426247
5710.000000	635.722180	672.135796	1226369.685367
5700.000000	697.744715	668.545666	1624354.324728
5690.000000	648.372878	648.126229	2102989.962099
5680.000000	705.918364	743.095307	2554498.544365
5670.000000	609.112299	566.665287	2450599.782705
5660.000000	567.947652	577.229697	2120145.239119
5650.000000	620.094045	634.811383	2232981.937566
5640.000000	641.368610	623.687301	1466532.350497
5630.000000	618.973044	651.932527	1043784.441494
5620.000000	572.204396	495.349300	498793.240687
5610.000000	545.776529	543.261698	594992.028336
5600.000000	636.066497	587.962434	318119.172483
5590.000000	561.345927	479.886309	259601.227488
5580.000000	669.238136	674.925554	254176.502571
5570.000000	573.248575	625.887532	995237.629410
5560.000000	557.052187	573.703898	2097391.264561
5550.000000	539.683034	471.741372	2797734.321321
5540.000000	672.639602	578.464711	3079248.913357
5530.000000	690.971912	683.011507	3525839.780642
5520.000000	661.552465	638.183233	4355717.742692
5510.000000	557.968244	611.698719	4667690.737433
5500.000000	614.433092	586.112086	4977120.448306
5490.000000	583.358739	598.547140	5956825.754212
5480.000000	618.861559	588.265058	5939608.313680
5470.000000	566.074029	600.954377	5381895.756793
5460.000000	604.270304	618.898782	3903108.252173
5450.000000	585.319518	627.627806	2807359.444157
5440.000000	604.654518	562.055231	1260790.476646
5430.000000	557.463849	557.694250	147957.100975
5420.000000	599.583923	650.068532	152994.275490
5410.000000	648.927681	640.428275	662216.369037
5400.000000	565.774382	590.619909	2851753.504064
5390.000000	689.255919	752.535368	6221847.250321
5380.000000	636.213722	594.829663	8854846.671716
5370.000000	730.037109	768.985795	10289288.580530
5360.000000	586.361646	652.016398	10382451.243588
5350.000000	604.779832	612.594670	8577862.785817
5340.000000	566.620171	581.609792	5754604.175953
5330.000000	635.791298	646.827439	3422234.373022
5320.000000	610.896240	571.339653	1965736.072564
5310.000000	552.941249	574.346260	518571.030643
5300.000000	627.757827	685.812938	273771.798946
5290.000000	583.875276	553.478407	1873742.235522
5280.000000	661.837096	604.742161	4428871.862657
5270.000000	616.060290	634.060057	7238563.617227
5260.000000	736.876816	708.121577	8193406.717449
5250.000000	689.307353	662.113912	8084100.014973
5240.000000	674.566231	629.658265	7800661.580840
5230.000000	545.390171	544.139941	7704335.625589
5220.000000	695.382327	719.297640	7367887.223509
5210.000000	737.149126	670.579929	5139270.274618
5200.000000	715.898578	729.739877	2970955.805461
5190.000000	653.463483	619.164291	1554149.954762
5180.000000	648.335110	598.589224	781909.721071
5170.000000	629.152048	576.794375	820883.777712
5160.000000	677.834645	634.764488	941476.801976
5150.000000	772.079618	794.486818	872178.712865
5140.000000	813.874197	754.214036	449097.099088
5130.000000	861.236289	809.002986	436225.019803
5120.000000	661.997205	646.776620	249735.221418
5110.000000	881.277091	737.281605	485479.501370
5100.000000	957.042747	941.558699	1045833.164802
5090.000000	857.039921	818.940625	1718593.315174
5080.000000	723.739498	673.961475	3333985.547776
5070.000000	810.325551	860.150466	4783821.939442
5060.000000	883.834529	901.881820	5892188.361900
5050.000000	794.302628	693.946273	6665749.150320
5040.000000	942.828571	1035.566496	5848838.027225
5030.000000	926.000538	859.708276	4968892.405680
5020.000000	825.306290	814.287560	4698771.918121
5010.000000	862.255745	764.530391	5004323.549631
5000.000000	863.262795	920.087261	4573456.714282
