

# HP output power has been disabled
# Scan parameters: power 16.000000 dBm, bandwidth 1.500000 Hz
# Frequency [MHz]	avg noise	std noise	peak value
7800.000000	535.706034	490.315261	72874.519519
7790.000000	484.048564	490.459414	54977.890517
7780.000000	514.109908	540.319776	55259.596048
7770.000000	526.118706	584.449053	51590.482405
7760.000000	598.505700	544.345168	53945.666959
7750.000000	538.468151	569.349063	67525.083505
7740.000000	461.800976	484.790153	53593.196159
7730.000000	466.366292	502.361369	57662.799721
7720.000000	526.585210	486.931367	58963.131675
7710.000000	511.471178	501.721091	57017.902442
7700.000000	557.596675	563.839645	53476.666773
7690.000000	464.145302	488.969778	57256.274448
7680.000000	495.398798	517.763224	49877.504021
7670.000000	540.051069	522.160269	52171.498790
7660.000000	558.168904	558.136462	44550.220160
7650.000000	519.448539	484.994431	70673.537222
7640.000000	513.270594	487.080617	62211.833577
7630.000000	380.050718	359.584927	49248.558607
7620.000000	497.859453	458.904781	57135.337872
7610.000000	486.968704	538.169838	60192.048438
7600.000000	501.326749	567.712628	55509.953933
7590.000000	571.744678	617.265002	69855.438406
7580.000000	528.561991	544.637168	58063.892926
7570.000000	523.233342	605.316358	56669.122528
7560.000000	467.017114	421.308450	47644.737288
7550.000000	492.353370	459.551532	63714.416955
7540.000000	514.647842	580.874245	59585.628473
7530.000000	529.406373	531.526453	68650.928272
7520.000000	480.553740	508.308453	67196.149564
7510.000000	518.933419	458.148584	60884.817376
7500.000000	595.640185	646.075465	63073.571520
7490.000000	626.234837	591.159599	66987.547626
7480.000000	583.148129	608.754822	62588.862421
7470.000000	528.845335	612.467169	72564.363631
7460.000000	557.173209	579.492940	63301.657985
7450.000000	525.284836	518.142568	61200.762971
7440.000000	593.821208	634.952775	57686.194322
7430.000000	537.600331	497.562124	64331.196551
7420.000000	513.992499	491.892417	58701.915491
7410.000000	554.836360	554.361747	63035.104029
7400.000000	591.478148	497.885040	81702.286910
7390.000000	638.335412	726.599972	73163.815139
7380.000000	593.343726	580.037112	75857.134119
7370.000000	574.016142	530.046709	80905.802082
7360.000000	522.834748	513.725417	56263.956159
7350.000000	559.565263	519.207145	56183.315610
7340.000000	494.133549	513.857401	76750.599260
7330.000000	613.272462	627.008679	53819.212873
7320.000000	632.279849	675.329062	68545.959334
7310.000000	508.995771	479.315245	68837.214064
7300.000000	529.216797	466.172404	72754.275513
7290.000000	583.172111	631.627123	66087.600459
7280.000000	623.979132	632.769643	58362.828360
7270.000000	554.666775	576.816015	73214.168391
7260.000000	535.523545	515.593299	59327.311817
7250.000000	483.605285	468.928258	52883.138969
7240.000000	470.165434	495.070114	71956.315064
7230.000000	521.872619	569.703545	56298.225317
7220.000000	542.299350	567.015145	53104.991083
7210.000000	570.962688	513.143330	64498.005252
7200.000000	468.979209	506.296922	55956.972399
7190.000000	499.869800	513.471718	66667.261781
7180.000000	483.278517	454.387239	59631.470536
7170.000000	466.153781	481.447950	71642.023626
7160.000000	429.393066	458.039858	53144.523540
7150.000000	460.654479	468.212174	51464.233850
7140.000000	424.367475	392.579053	58388.495171
7130.000000	517.842727	524.985885	53280.852792
7120.000000	421.363229	394.821449	52168.224338
7110.000000	476.398884	458.778790	66106.953819
7100.000000	438.281329	463.135374	56863.999598
7090.000000	410.378227	399.941203	52093.282007
7080.000000	410.820731	353.680946	65672.246734
7070.000000	391.211478	377.983417	47474.092535
7060.000000	386.183457	403.218231	44703.258248
7050.000000	366.456199	357.591549	51554.479631
7040.000000	339.571333	349.434229	52362.623442
7030.000000	395.031494	402.884927	47116.188264
7020.000000	353.884372	334.898038	49566.193754
7010.000000	418.000499	533.587635	54976.286409
7000.000000	389.352127	384.460396	58750.540192
6990.000000	381.491226	392.238364	55127.428776
6980.000000	405.306331	384.350907	49762.202350
6970.000000	390.796939	394.848984	50099.178796
6960.000000	357.310004	337.392418	54834.744091
6950.000000	405.478558	385.084660	57333.757012
6940.000000	355.886380	359.075934	53222.007469
6930.000000	341.346738	371.881555	43792.474749
6920.000000	347.314104	316.942434	39307.944097
6910.000000	362.438035	358.348271	48697.940236
6900.000000	360.418299	366.804126	42797.406925
6890.000000	372.064217	396.918544	41747.925727
6880.000000	369.557721	377.831130	42026.107518
6870.000000	335.120657	340.952205	38242.769615
6860.000000	338.267583	320.453073	53347.904085
6850.000000	327.479652	356.912210	37053.248111
6840.000000	398.541596	407.838904	38516.661449
6830.000000	338.334134	340.357249	41885.033746
6820.000000	314.735506	305.773145	33735.447709
6810.000000	359.119025	405.572679	37064.702218
6800.000000	336.429006	384.843367	31722.813558
6790.000000	318.166987	307.940762	38989.039497
6780.000000	373.949028	346.213545	31681.717287
6770.000000	296.687298	295.365606	37186.961312
6760.000000	332.049986	349.085870	41078.218834
6750.000000	308.747115	294.683648	43620.494878
6740.000000	344.510017	294.630713	43732.981174
6730.000000	330.927329	315.081429	38597.311198
6720.000000	329.181595	358.922867	37780.393811
6710.000000	373.802370	372.815284	36827.839539
6700.000000	320.365662	336.965073	41710.971479
6690.000000	348.701851	353.104436	52900.894571
6680.000000	364.116043	356.441094	40576.038791
6670.000000	373.862634	376.573698	43108.671821
6660.000000	351.705742	386.552920	36777.302802
6650.000000	365.903708	358.106568	44773.573039
6640.000000	375.766278	381.122483	37639.926590
6630.000000	334.931569	313.864917	41923.835284
6620.000000	419.994117	499.909277	36257.080804
6610.000000	389.171862	470.337373	41583.181260
6600.000000	412.285524	425.629912	43565.411987
6590.000000	382.070258	407.321412	48734.467839
6580.000000	417.059793	439.349232	35760.569771
6570.000000	445.489079	450.420332	35904.739766
6560.000000	363.545012	369.785634	38173.294582
6550.000000	451.568741	430.472616	29208.654725
6540.000000	406.567620	440.555207	29207.041269
6530.000000	443.495234	428.981968	40641.680583
6520.000000	443.672682	401.453178	42853.277781
6510.000000	500.032333	468.564651	41918.344608
6500.000000	412.919408	381.016127	51843.528701
6490.000000	398.415159	371.622997	42035.947927
6480.000000	703.700447	707.452142	41100.739867
6470.000000	582.568397	556.983332	41183.416566
6460.000000	496.481868	469.017719	39361.029719
6450.000000	490.667484	520.673127	45186.102974
6440.000000	483.388267	488.332603	43350.123255
6430.000000	490.038199	434.293713	37751.526784
6420.000000	687.538295	761.931752	43987.684136
6410.000000	554.442860	542.146682	45613.891375
6400.000000	492.497283	465.832188	34095.875397
6390.000000	484.238708	534.766678	53769.595441
6380.000000	582.107233	566.425555	40343.233938
6370.000000	919.949213	786.779387	40498.646454
6360.000000	825.144206	844.885241	47484.320960
6350.000000	575.277465	606.164542	57017.462084
6340.000000	705.383147	702.062255	48895.826118
6330.000000	664.795482	628.033992	49297.938912
6320.000000	710.863168	705.940694	47547.155442
6310.000000	662.644724	740.468419	44877.526346
6300.000000	589.534219	553.657905	49367.342726
6290.000000	638.011633	572.534002	59795.626912
6280.000000	648.050865	683.352536	69609.881460
6270.000000	647.057673	681.829226	55955.480399
6260.000000	866.248059	964.501739	63240.662971
6250.000000	850.805241	880.677169	51272.963054
6240.000000	660.765666	632.392604	55108.197030
6230.000000	737.048492	698.067562	59979.052244
6220.000000	838.010171	794.657252	72204.570557
6210.000000	741.704235	785.942576	74557.045801
6200.000000	620.505324	651.672074	80410.137443
6190.000000	652.279019	603.300736	72864.854270
6180.000000	698.004183	756.667112	89365.076021
6170.000000	741.422046	672.285975	68297.541007
6160.000000	812.878789	844.761702	64985.155995
6150.000000	1238.580482	1197.600783	76373.615837
6140.000000	708.142073	715.428158	69920.407039
6130.000000	959.303905	1010.544535	65682.670508
6120.000000	979.191255	962.983278	61667.014485
6110.000000	897.115928	800.866437	81658.115417
6100.000000	734.506425	746.599651	78625.601970
6090.000000	753.543202	804.662473	82875.940510
6080.000000	843.702502	740.512065	76876.249461
6070.000000	892.417412	911.508453	100508.453983
6060.000000	963.166219	998.856870	79973.417123
6050.000000	843.702815	792.105265	80647.876066
6040.000000	702.032563	786.708290	77513.576129
6030.000000	757.218822	725.921289	76330.908282
6020.000000	989.316214	1040.372269	58040.982760
6010.000000	745.935902	747.340511	80232.715917
6000.000000	883.296616	841.667485	88999.480985
5990.000000	760.174299	725.059766	67829.883812
5980.000000	656.392846	648.561735	92103.359963
5970.000000	628.807007	614.742168	86900.535810
5960.000000	735.578084	710.187390	71430.903799
5950.000000	912.646770	839.338678	78245.991543
5940.000000	862.596662	778.476454	86654.164081
5930.000000	713.449943	632.758265	65670.518167
5920.000000	806.560044	758.688767	80585.772167
5910.000000	715.837817	620.786706	86944.469067
5900.000000	825.887551	961.636367	85271.655829
5890.000000	701.709925	667.893852	65834.457751
5880.000000	697.726573	669.176832	85152.074593
5870.000000	713.909121	678.833138	72669.391249
5860.000000	813.314474	824.695840	73385.305325
5850.000000	795.242599	854.454989	71586.717881
5840.000000	821.437218	780.988483	83994.951719
5830.000000	619.123770	693.149539	90701.773063
5820.000000	688.351270	612.977935	82341.952342
5810.000000	784.572308	768.746901	66620.952725
5800.000000	782.977253	709.454141	67403.389403
5790.000000	734.359685	705.915801	83999.919764
5780.000000	679.590793	666.464076	77974.055173
5770.000000	748.127291	756.277088	74195.752934
5760.000000	802.880949	880.998719	84879.494648
5750.000000	757.538665	863.002503	83533.492701
5740.000000	798.652439	780.570148	91725.435038
5730.000000	727.851954	761.345032	76442.242429
5720.000000	636.030839	606.105613	76608.411680
5710.000000	735.340903	725.902294	75465.950095
5700.000000	769.268965	779.580586	88150.287835
5690.000000	774.596474	899.341353	84948.434783
5680.000000	816.688216	825.858588	71948.222630
5670.000000	783.047673	839.567736	82092.425799
5660.000000	757.203330	786.749507	78058.003250
5650.000000	702.419645	616.067860	91325.371976
5640.000000	704.387159	873.611754	72536.452357
5630.000000	900.842130	1022.652917	75187.997708
5620.000000	901.872028	914.690672	69164.162314
5610.000000	715.392535	631.047423	86199.243354
5600.000000	717.998584	677.232575	97668.619216
5590.000000	753.144706	660.596426	69848.618472
5580.000000	793.232064	751.118256	106885.574682
5570.000000	820.116051	830.067666	78862.821151
5560.000000	788.238352	725.897975	82501.981665
5550.000000	641.443509	695.520532	81148.218766
5540.000000	783.071429	770.544486	76449.558437
5530.000000	810.300585	828.429533	91083.069179
5520.000000	775.435603	803.877581	73249.443149
5510.000000	843.784022	721.646388	80599.420183
5500.000000	738.565406	758.892282	74501.353274
5490.000000	699.389143	686.566410	77258.263684
5480.000000	661.925116	719.606374	70982.097749
5470.000000	828.538135	806.481530	72529.640307
5460.000000	721.869511	721.847968	71915.424455
5450.000000	720.341801	781.858879	82359.628356
5440.000000	756.835850	770.781652	90109.280873
5430.000000	815.361008	787.727406	79234.254101
5420.000000	679.340207	659.936323	82862.561766
5410.000000	736.719690	678.875219	67578.367008
5400.000000	759.457562	768.041203	83761.787466
5390.000000	676.927267	736.971615	82551.352780
5380.000000	707.749295	684.587712	86653.842211
5370.000000	765.214944	755.391532	69448.741384
5360.000000	785.781200	833.299982	66661.246303
5350.000000	696.945508	688.038468	88003.505547
5340.000000	758.416995	722.548792	82040.666422
5330.000000	665.559432	649.002825	78304.343753
5320.000000	639.000049	628.868051	58114.611516
5310.000000	715.963809	677.698356	73821.848524
5300.000000	688.872624	631.203274	68111.941271
5290.000000	776.923567	758.822423	71598.198730
5280.000000	644.396260	577.204461	78913.372313
5270.000000	697.418049	701.810341	87790.212207
5260.000000	725.041468	695.044826	64126.750081
5250.000000	624.457882	730.491192	73455.188259
5240.000000	722.733120	619.917945	68502.801096
5230.000000	666.802819	651.411873	73023.351086
5220.000000	627.845054	551.219990	76238.448391
5210.000000	689.909552	657.593288	62905.189147
5200.000000	724.275595	806.805630	68010.563128
5190.000000	733.968619	892.634429	77769.003108
5180.000000	711.584871	731.462407	89334.600604
5170.000000	681.856803	729.854447	72500.180580
5160.000000	669.042677	650.421738	81044.222915
5150.000000	764.189313	784.568714	75114.789001
5140.000000	749.574178	790.958274	95153.496393
5130.000000	749.774641	687.126473	78486.037242
5120.000000	745.942115	773.630386	81117.433471
5110.000000	802.949257	757.990609	78484.827610
5100.000000	779.634503	789.034996	80019.817300
5090.000000	751.854885	695.313329	99435.982972
5080.000000	813.223713	842.802320	80734.836446
5070.000000	859.278556	938.001219	80877.826979
5060.000000	681.953110	735.797104	91306.039792
5050.000000	823.612766	804.193158	91949.571367
5040.000000	787.332554	779.482620	92679.077614
5030.000000	846.764762	870.142389	87235.378682
5020.000000	876.780020	853.228617	86985.302418
5010.000000	846.253140	787.752676	69036.514071
5000.000000	854.425029	786.624987	87157.374975
