

# Way off sample and on ground plane
# Scan parameters: power 16.000000 dBm, bandwidth 1.500000 Hz
# Frequency [MHz]	avg noise	std noise	peak value
3851.000000	15.421099	13.499975	1045.003665
3853.000000	14.363663	14.975999	1559.127646
3855.000000	13.130681	14.094114	847.128642
3857.000000	11.533176	10.756029	1342.404905
3859.000000	12.457770	12.100741	2310.569529
3861.000000	11.962552	13.394546	1799.318902
3863.000000	11.585138	12.299494	1014.454657
3865.000000	12.163630	12.712912	1458.059755
3867.000000	13.896469	15.047148	2365.328403
3869.000000	13.949620	13.187709	2226.738739
3871.000000	12.427175	12.795920	976.715651
3873.000000	14.009047	11.638218	1942.946527
3875.000000	15.430052	14.418301	2808.070398
3877.000000	15.191280	14.322910	1725.635471
3879.000000	14.911259	15.840532	1545.773881
3881.000000	18.318585	17.004780	5303.126652
3883.000000	17.175091	16.201203	2849.954081
3885.000000	19.544795	17.552186	2094.725064
3887.000000	16.733824	16.513606	3487.779535
3889.000000	19.267108	22.442932	5104.251134
3891.000000	18.569450	17.762088	1815.437893
3893.000000	18.519552	17.107375	4838.787052
3895.000000	19.322496	18.811251	6560.364575
3897.000000	22.346092	20.775222	5832.541906
3899.000000	21.662296	20.185461	3062.413447
3901.000000	25.827754	25.597878	3848.678912
3903.000000	24.431700	25.300039	7736.091896
3905.000000	30.340972	30.547601	2676.901417
3907.000000	30.908941	28.371172	3803.438125
3909.000000	39.118033	36.252258	4342.895877
3911.000000	22.876170	23.442173	2955.756403
3913.000000	31.101882	33.673137	2726.590307
3915.000000	25.749828	23.506634	3008.228085
3917.000000	25.943768	25.091796	5138.128706
3919.000000	27.173807	24.236611	3083.016926
3921.000000	33.360437	33.171851	2943.466889
3923.000000	25.673215	26.103762	2526.316416
3925.000000	27.348303	25.262064	2358.586283
3927.000000	27.782665	27.721725	1700.208384
3929.000000	28.801383	28.695822	2012.815511
3931.000000	29.872453	29.007890	1855.388399
3933.000000	30.118351	32.722726	1442.368565
3935.000000	30.968965	32.532254	1294.877420
3937.000000	30.760228	26.516431	963.026180
3939.000000	25.719641	25.243626	899.696496
3941.000000	31.288587	32.294444	834.269797
3943.000000	25.371029	26.648560	846.785994
3945.000000	25.455949	25.324999	1112.052116
3947.000000	24.397636	24.512250	1442.872973
3949.000000	23.937635	24.992232	907.261962
3951.000000	21.623477	22.361626	1971.979603
3953.000000	24.780580	25.202929	3184.071854
3955.000000	20.188783	19.996195	2344.944983
3957.000000	17.313179	16.284991	2222.505151
3959.000000	16.208369	17.547091	3143.891052
3961.000000	17.625865	16.346639	2668.440451
3963.000000	18.996280	19.947458	849.277955
3965.000000	16.717645	16.520494	2415.705852
3967.000000	15.834497	16.785857	3899.268883
3969.000000	13.254361	13.006133	2927.552704
3971.000000	13.980598	13.982420	2162.300368
3973.000000	12.959955	12.484826	3511.716275
3975.000000	13.217868	12.981802	3542.169690
3977.000000	12.888934	11.859820	955.955739
3979.000000	14.022058	13.267887	1891.329860
3981.000000	13.425970	13.751166	2478.187499
3983.000000	12.999479	12.318749	2081.060777
3985.000000	13.811267	13.456924	1681.477723
3987.000000	10.426337	9.067687	3101.350813
3989.000000	13.451967	11.456281	4024.442951
3991.000000	13.288391	14.350219	3098.110102
3993.000000	12.363296	12.717152	4015.742978
3995.000000	12.450344	13.293513	6887.573184
3997.000000	12.547769	11.338352	6207.331463
3999.000000	13.294624	13.022196	3200.163055
4001.000000	14.139245	13.238956	7871.838242
4003.000000	11.295889	11.865240	8425.407088
4005.000000	11.825728	11.197123	5596.451841
4007.000000	14.196702	15.339700	5305.329037
4009.000000	13.538771	14.247610	7733.175316
4011.000000	14.146302	14.409105	5415.021781
4013.000000	15.307175	16.686174	3052.553801
4015.000000	15.123900	15.459478	4250.695145
4017.000000	17.109640	16.987582	4839.035765
4019.000000	18.757581	17.305053	3261.125555
4021.000000	16.688589	16.245572	2935.465566
4023.000000	19.657330	20.007992	3049.747723
4025.000000	19.682206	19.155182	3388.440835
4027.000000	20.546274	18.792527	2082.146999
4029.000000	21.573759	22.623685	3684.128786
4031.000000	21.137541	21.210079	4898.078658
4033.000000	22.183157	20.517633	3023.180282
4035.000000	22.308055	25.809930	2105.340700
4037.000000	26.509862	26.713681	2729.503389
4039.000000	24.597787	24.014982	2945.797607
4041.000000	26.655564	23.705405	1403.418016
4043.000000	31.628834	33.479794	1725.538615
4045.000000	31.915348	34.239326	2556.047993
4047.000000	33.757531	31.545551	2009.818768
4049.000000	35.395506	34.878533	1150.077518
4051.000000	34.063079	35.087289	2094.156958
4053.000000	34.812466	33.289355	1823.783641
4055.000000	44.064636	44.626162	861.629471
4057.000000	33.402586	36.217429	598.848621
4059.000000	41.589182	42.189505	1510.057574
4061.000000	42.032827	45.779677	669.897716
4063.000000	43.691119	44.210206	309.219902
4065.000000	41.913230	40.490058	790.903452
4067.000000	52.308793	48.769621	745.023005
4069.000000	44.053280	42.867997	430.278720
4071.000000	43.993240	45.988358	464.990502
4073.000000	45.961764	44.889412	322.972056
4075.000000	41.410826	37.468924	157.530190
4077.000000	45.190003	48.431898	247.138853
4079.000000	49.479794	46.989176	470.794210
4081.000000	49.150023	45.532735	240.551785
4083.000000	44.434947	42.385070	916.713639
4085.000000	37.742118	31.895349	556.135937
4087.000000	37.720490	35.916332	608.000662
4089.000000	39.785872	35.023134	928.117469
4091.000000	37.020484	37.844819	539.652954
4093.000000	29.245620	28.521277	391.754597
4095.000000	35.460076	33.341977	724.724550
4097.000000	29.380994	29.344709	1852.121132
4099.000000	29.801429	30.909459	976.312999
4101.000000	28.140908	27.021121	2091.786477
4103.000000	29.939234	28.434169	2209.351921
4105.000000	28.224531	28.676489	1316.471107
4107.000000	24.584728	23.825775	931.756157
4109.000000	25.107912	26.410447	1651.693889
4111.000000	21.144092	20.885740	1387.653664
4113.000000	23.464787	24.216794	861.756167
4115.000000	21.611051	20.845584	991.139517
4117.000000	19.521597	19.898705	1633.657274
4119.000000	19.223099	20.204840	901.646726
4121.000000	19.231449	18.120739	627.217874
4123.000000	16.608466	14.946865	861.469951
4125.000000	15.932464	14.579753	697.782767
4127.000000	13.991350	16.437624	346.096279
4129.000000	14.971697	13.983623	513.579227
4131.000000	13.773958	14.325269	689.347534
4133.000000	11.334033	10.857649	753.494794
4135.000000	10.943504	10.429242	414.786242
4137.000000	12.950514	13.992689	1111.387741
4139.000000	12.567351	12.579284	918.825299
4141.000000	10.894942	11.243379	494.748613
4143.000000	10.461726	9.655754	593.539963
4145.000000	10.063310	10.047403	796.849569
4147.000000	9.297731	9.353390	260.309103
4149.000000	8.647979	9.111624	149.441130
4151.000000	9.116504	8.847574	324.694704
4153.000000	7.491723	7.791482	313.619971
4155.000000	8.247881	8.129232	273.838577
4157.000000	8.036364	7.539861	238.661867
4159.000000	7.239845	7.283817	346.064164
4161.000000	6.875265	7.376102	228.151947
4163.000000	6.927846	7.073692	104.485563
4165.000000	7.393662	6.538251	119.005949
4167.000000	6.285011	7.008996	115.153836
4169.000000	7.275805	6.345525	88.748414
4171.000000	6.392404	5.519757	101.940506
4173.000000	6.562616	5.529563	29.369974
4175.000000	6.058580	5.945100	125.024659
4177.000000	8.492895	8.938963	41.125848
4179.000000	8.448475	8.808232	90.891158
4181.000000	9.614395	9.980800	39.835072
4183.000000	10.319302	9.793249	72.657498
4185.000000	11.033247	11.196043	60.692803
4187.000000	12.028352	11.689733	134.979300
4189.000000	12.014708	11.812032	112.141145
4191.000000	11.019750	11.180718	100.406676
4193.000000	12.897957	13.223063	97.778656
4195.000000	13.650722	14.222032	375.475909
4197.000000	14.203640	12.104698	257.121815
4199.000000	13.181802	15.007663	71.422220
4201.000000	14.769516	14.286329	172.423574
4203.000000	13.035458	13.201805	134.051142
4205.000000	13.151576	12.289532	251.240393
4207.000000	13.920238	14.480319	191.112285
4209.000000	14.526217	13.237606	403.433838
4211.000000	14.664041	14.815983	213.019315
4213.000000	15.415536	13.607749	117.326491
4215.000000	13.694687	13.780877	161.517949
4217.000000	15.625754	15.042029	217.782192
4219.000000	18.904033	19.887607	195.906116
4221.000000	21.217967	20.184946	213.563959
4223.000000	21.425255	18.855164	233.254418
4225.000000	18.589708	18.863370	135.554540
4227.000000	26.372783	30.457429	175.164542
4229.000000	19.732511	18.457100	159.694731
4231.000000	17.590088	18.266707	313.962669
4233.000000	15.303240	15.127386	330.214298
4235.000000	18.417686	19.551417	153.878920
4237.000000	18.900930	17.453296	547.706247
4239.000000	18.057667	16.843440	393.236070
4241.000000	18.445856	18.903707	233.580536
4243.000000	18.479168	19.149304	160.185478
4245.000000	24.349526	24.727333	280.091154
4247.000000	25.491275	27.029523	210.206828
4249.000000	21.607667	24.005540	148.602379
4251.000000	27.771672	29.254969	141.623723
4253.000000	19.321137	18.057567	363.809987
4255.000000	21.922084	21.256469	254.819313
4257.000000	17.963037	17.354452	184.509882
4259.000000	16.986929	17.685223	347.571701
4261.000000	16.286636	18.616213	85.507428
4263.000000	17.229574	17.120719	139.619557
4265.000000	16.101903	17.472692	126.611375
4267.000000	14.119806	15.107810	267.049644
4269.000000	13.285394	12.032098	178.647258
4271.000000	12.537996	12.028426	193.381427
4273.000000	10.974449	11.511567	254.750083
4275.000000	11.241971	11.094097	239.030872
4277.000000	10.402684	9.958043	103.882692
4279.000000	10.419132	9.869348	197.651909
4281.000000	10.112314	9.689929	249.064843
4283.000000	10.511925	9.668153	82.156609
4285.000000	8.973874	9.718767	106.731438
4287.000000	9.671038	9.990329	51.689557
4289.000000	8.226733	8.304311	79.108883
4291.000000	8.069995	7.645359	58.723262
4293.000000	7.947304	9.154652	135.871771
4295.000000	6.475311	6.546872	156.894536
4297.000000	7.318033	6.848265	133.928672
4299.000000	8.455589	8.134955	116.595124
4301.000000	9.347291	10.176014	178.985373
4303.000000	7.773669	8.292581	213.739563
4305.000000	8.152390	8.231153	246.493797
4307.000000	8.028963	8.012355	206.898352
4309.000000	8.756820	8.355414	284.997384
4311.000000	9.267882	9.177699	239.052330
4313.000000	10.331292	9.175993	186.183522
4315.000000	10.969734	11.019565	438.461750
4317.000000	12.484999	12.668964	550.041365
4319.000000	14.034339	15.164052	175.893741
4321.000000	14.280596	13.009968	361.507060
4323.000000	18.203661	18.772796	435.267392
4325.000000	18.286781	20.120509	703.519023
4327.000000	21.683764	20.347077	566.948273
4329.000000	22.461442	22.020837	564.397730
4331.000000	24.365819	24.616961	1258.736551
4333.000000	28.338433	29.303450	906.383876
4335.000000	27.108124	28.310696	548.132265
4337.000000	30.213813	30.345569	1628.777800
4339.000000	28.236120	29.355225	846.100313
4341.000000	33.998304	35.545531	782.980327
4343.000000	33.404150	38.867302	937.229997
4345.000000	36.171739	36.340943	1553.906527
4347.000000	35.355474	34.388311	1454.574505
4349.000000	34.594350	35.373655	697.342524
4351.000000	36.786201	34.500741	1116.343437
4353.000000	40.564310	38.021148	974.219524
4355.000000	36.294378	35.270325	723.937727
4357.000000	21.518670	19.427739	564.372006
4359.000000	20.249095	18.776301	568.088221
4361.000000	26.258535	25.031310	485.061034
4363.000000	24.931016	22.507873	291.488818
4365.000000	20.352510	21.345157	267.930791
4367.000000	23.484192	24.387688	701.388769
4369.000000	25.700953	23.308326	612.210771
4371.000000	20.454258	20.590724	310.938637
4373.000000	19.507444	19.307062	403.107831
4375.000000	15.087711	15.034001	214.702675
4377.000000	13.770515	14.499094	70.975798
4379.000000	13.407518	12.293817	99.762651
4381.000000	12.789525	14.104949	286.156556
4383.000000	10.463556	9.396305	134.787182
4385.000000	10.762552	11.010751	112.685060
4387.000000	11.610442	10.952986	107.541558
4389.000000	10.112865	9.836757	240.729633
4391.000000	10.973029	11.871291	134.683239
4393.000000	10.715108	11.803605	353.198750
4395.000000	9.068544	8.637791	354.049776
4397.000000	8.350214	8.096821	281.980808
4399.000000	8.036943	8.154612	147.771208
4401.000000	8.747933	8.828422	355.200779
4403.000000	9.803438	9.168806	472.303109
4405.000000	8.666242	8.409638	229.908241
4407.000000	8.936307	8.793584	275.881583
4409.000000	7.975675	7.208910	441.575111
4411.000000	8.659910	8.842663	251.022888
4413.000000	7.132643	6.743485	212.300461
4415.000000	7.475825	7.149542	220.563211
4417.000000	8.464637	8.212202	496.464941
4419.000000	9.163984	10.271841	208.937858
4421.000000	8.637657	8.963896	211.891913
4423.000000	8.778444	8.936872	357.112340
4425.000000	10.260697	11.183380	313.123867
4427.000000	10.247412	9.439657	153.210438
4429.000000	9.889422	10.080060	305.753394
4431.000000	11.108570	10.657774	199.449015
4433.000000	10.973518	11.807842	133.310607
4435.000000	13.025765	14.248942	173.996161
4437.000000	11.877204	12.900596	245.689655
4439.000000	12.328367	12.175707	228.348317
4441.000000	14.418382	13.941596	379.227991
4443.000000	13.219749	13.511131	344.628159
4445.000000	13.670159	13.223588	396.712006
4447.000000	15.330835	15.811397	368.142831
4449.000000	14.188056	14.712026	199.004895
4451.000000	15.191309	16.198353	284.873790
4453.000000	13.084410	12.374065	388.971384
4455.000000	14.245930	14.175840	127.698598
4457.000000	14.299537	13.099043	206.606402
4459.000000	15.406015	14.884794	290.227198
4461.000000	14.127599	13.734377	364.045200
4463.000000	15.657898	17.259234	164.193091
4465.000000	15.500437	14.381567	373.857238
4467.000000	15.621702	13.961909	594.698256
4469.000000	15.173502	16.624827	489.927913
4471.000000	15.051179	14.776650	275.724125
4473.000000	15.835812	14.621848	344.459000
4475.000000	12.975100	12.889389	354.866434
4477.000000	15.290425	16.328136	154.784511
4479.000000	14.697700	15.461480	337.092250
4481.000000	14.040227	13.822149	229.571670
4483.000000	13.594891	13.726519	136.768880
4485.000000	12.315716	11.390732	133.253474
4487.000000	12.809181	14.393641	192.979266
4489.000000	11.532475	12.674125	274.943150
4491.000000	10.342156	9.818963	110.692358
4493.000000	11.278770	12.386886	140.272228
4495.000000	9.338708	9.817666	210.052364
4497.000000	12.039001	11.699528	173.183756
4499.000000	13.081898	11.902360	97.210570
4501.000000	9.210265	9.515276	199.639528
4503.000000	9.942236	9.814473	158.758080
4505.000000	10.329249	9.430218	111.950443
4507.000000	7.959392	8.348182	277.896528
4509.000000	8.184919	7.546989	379.217793
4511.000000	8.625215	8.893394	249.264679
4513.000000	7.614886	7.870235	242.934679
4515.000000	10.995433	11.154576	409.675211
4517.000000	9.233309	8.898134	654.307746
4519.000000	6.108293	6.702164	252.818711
4521.000000	5.562770	4.940499	302.160947
4523.000000	5.480274	6.276689	457.369921
4525.000000	6.775463	6.662683	759.261527
4527.000000	5.123432	5.510023	381.118898
4529.000000	4.995245	4.687294	519.068588
4531.000000	4.317706	4.046802	773.418465
4533.000000	4.248508	4.122816	446.995526
4535.000000	4.509388	4.458440	268.750559
4537.000000	4.126020	4.450892	368.421970
4539.000000	3.701214	3.759322	329.193727
4541.000000	3.728576	3.775517	108.571214
4543.000000	3.609803	3.796776	192.974391
4545.000000	3.472136	3.365451	200.831836
4547.000000	3.047495	2.975475	231.190832
4549.000000	3.134812	3.197127	143.317617
4551.000000	3.904146	3.486457	284.335994
4553.000000	3.642402	3.625243	225.673412
4555.000000	3.380622	3.590266	153.375328
4557.000000	3.896001	3.829290	161.496238
4559.000000	3.797615	3.839505	174.928580
4561.000000	3.315538	3.589076	147.783378
4563.000000	3.241250	3.372758	60.974919
4565.000000	3.844170	4.121088	128.750832
4567.000000	3.817639	3.863182	94.890022
4569.000000	3.463652	3.067846	120.848995
4571.000000	3.683228	3.279648	65.721507
4573.000000	3.196810	2.993251	126.228549
4575.000000	3.284964	3.092605	183.745428
4577.000000	3.123288	2.724454	57.703758
4579.000000	3.709781	3.899563	89.961911
4581.000000	3.397761	3.255671	60.570200
4583.000000	3.624302	3.474108	25.367761
4585.000000	3.803174	3.815651	14.717577
4587.000000	3.535792	3.308199	22.937095
4589.000000	3.568450	3.572189	78.651215
4591.000000	3.969565	3.828255	80.531206
4593.000000	4.414042	4.454155	116.822880
4595.000000	3.936533	3.566907	141.155705
4597.000000	4.208147	4.509097	146.598630
4599.000000	3.616151	4.282767	45.326008
4601.000000	3.461348	3.621632	102.598979
4603.000000	4.181743	3.668044	102.679617
4605.000000	4.204140	4.051533	173.680861
4607.000000	4.141735	4.214525	94.506676
4609.000000	4.582927	4.012567	180.360221
4611.000000	4.174766	4.619864	112.335351
4613.000000	3.823474	3.715060	100.229063
4615.000000	4.765469	4.480383	165.996131
4617.000000	4.571536	5.115385	173.113853
4619.000000	4.694158	4.789929	189.402252
4621.000000	4.392142	4.589318	155.788014
4623.000000	4.493957	5.085520	310.577570
4625.000000	4.640725	3.957867	428.679764
4627.000000	4.582851	4.508795	397.481518
4629.000000	4.489317	4.337172	490.793563
4631.000000	3.977609	4.143766	700.609420
4633.000000	4.457020	4.399534	478.463869
4635.000000	4.719060	4.021998	353.057784
4637.000000	5.024433	5.131997	329.028510
4639.000000	5.023206	5.280128	286.176278
4641.000000	5.165215	5.504853	157.565391
4643.000000	5.190856	4.846626	131.581731
4645.000000	5.289907	4.522739	159.165151
4647.000000	5.045546	4.894640	115.377908
4649.000000	5.459108	4.934812	77.773416
4651.000000	5.541035	5.774852	38.539292
4653.000000	6.264946	6.080199	64.991924
4655.000000	5.890960	5.672379	42.080064
4657.000000	6.569488	5.967007	94.601225
4659.000000	6.756811	7.009623	40.567702
4661.000000	6.593671	6.147497	38.276061
4663.000000	6.470160	6.183021	37.518106
4665.000000	6.770333	5.494790	129.976245
4667.000000	6.946393	6.982258	126.733480
4669.000000	6.181307	5.901685	92.455568
4671.000000	6.802857	6.415341	62.350846
4673.000000	6.936026	6.659600	181.888417
4675.000000	7.659480	7.140337	177.493281
4677.000000	6.567767	7.085817	62.411936
4679.000000	7.935125	7.503308	146.818683
4681.000000	7.846784	7.677227	149.764482
4683.000000	7.547088	8.056458	258.341504
4685.000000	8.738255	8.497827	135.900484
4687.000000	6.884906	7.210858	298.116453
4689.000000	8.676679	8.170830	167.838859
4691.000000	7.484068	6.971791	84.739916
4693.000000	8.154188	8.005970	132.763732
4695.000000	6.828019	6.361154	121.959845
4697.000000	7.829515	7.076893	63.988382
4699.000000	8.095331	8.566956	78.346120
4701.000000	7.644747	7.525823	119.683867
4703.000000	7.315961	6.718690	146.759311
4705.000000	7.651568	7.360979	180.500921
4707.000000	8.067059	8.103226	118.241843
4709.000000	7.365889	8.502350	143.925853
4711.000000	6.433136	6.331748	189.490504
4713.000000	7.343005	6.772565	83.643682
4715.000000	7.121892	6.701264	248.120673
4717.000000	7.155317	7.014540	176.935891
4719.000000	7.746179	7.617094	111.889171
4721.000000	6.853461	6.416649	183.908086
4723.000000	6.946231	7.205614	202.694105
4725.000000	6.985825	7.316451	89.090536
4727.000000	6.700649	7.547012	27.667230
4729.000000	6.388074	6.275796	68.464225
4731.000000	6.872803	6.733204	37.361009
4733.000000	6.606325	7.074084	26.702006
4735.000000	5.822232	6.543405	27.968269
4737.000000	6.780171	6.139525	37.910157
4739.000000	6.559072	6.092275	41.891074
4741.000000	6.021671	5.751655	86.288739
4743.000000	6.116019	6.294660	106.668024
4745.000000	6.676056	6.086626	146.578186
4747.000000	6.073858	6.095007	256.390891
4749.000000	6.191745	6.232637	154.711600
4751.000000	5.516266	5.007600	288.904153
4753.000000	6.280150	6.298768	473.797517
4755.000000	5.676417	5.389169	349.492818
4757.000000	5.711770	5.850263	362.954282
4759.000000	6.168805	6.872888	359.385581
4761.000000	6.216244	6.651024	643.939073
4763.000000	6.258546	6.302211	340.609503
4765.000000	6.264389	6.233132	933.507976
4767.000000	6.435251	7.072806	1370.696878
4769.000000	5.565515	5.559658	854.223755
4771.000000	6.896549	6.954792	873.249372
4773.000000	7.007599	6.810625	1330.722923
4775.000000	7.136797	6.137687	1178.551946
4777.000000	5.895184	5.771204	982.749178
4779.000000	6.221249	5.700987	1395.655038
4781.000000	6.017088	6.333186	2043.253597
4783.000000	7.084089	6.894801	1578.556537
4785.000000	7.483374	8.261882	1226.705837
4787.000000	7.728248	6.686496	2024.425606
4789.000000	6.913058	7.016764	2566.253782
4791.000000	8.082478	8.374853	1547.216988
4793.000000	8.151947	8.373411	1623.218273
4795.000000	7.906091	8.072169	2395.693147
4797.000000	9.539444	9.789752	1362.548295
4799.000000	10.160967	10.618804	782.737427
4801.000000	10.764251	10.691444	1785.580287
4803.000000	10.388755	10.725989	2357.238627
4805.000000	10.178366	10.295950	1430.984122
4807.000000	11.341850	11.022798	1387.202605
4809.000000	12.343044	11.790425	2649.787610
4811.000000	12.485765	11.973524	1905.507769
4813.000000	13.934198	12.123292	1311.032215
4815.000000	13.866955	13.846984	2012.474781
4817.000000	13.951307	14.045559	2416.546591
4819.000000	14.583931	15.685073	1766.194331
4821.000000	14.794050	14.621398	1520.863444
4823.000000	15.824390	15.249824	2785.298043
4825.000000	15.880269	17.172612	2392.342896
4827.000000	16.950757	16.536845	1941.691441
4829.000000	16.673359	15.440204	2794.298816
4831.000000	16.389674	15.775551	3494.999993
4833.000000	18.619216	17.744247	2450.466164
4835.000000	15.025098	14.343941	2137.327370
4837.000000	17.340815	16.951663	3457.417147
4839.000000	15.052092	14.640363	3124.919147
4841.000000	16.599231	15.641090	1631.489678
4843.000000	15.578569	14.397096	1759.339437
4845.000000	14.562341	13.150232	2847.814316
4847.000000	15.517502	13.937809	1721.754250
4849.000000	17.114171	16.449456	940.845396
4851.000000	13.163202	12.555350	1632.131477
4853.000000	12.444181	14.355739	1987.127269
4855.000000	13.416506	13.523273	1403.031754
4857.000000	12.103245	12.083891	1015.455929
4859.000000	10.923996	10.527827	1314.636749
4861.000000	10.779470	11.498164	1027.841938
4863.000000	11.608647	10.441520	661.907216
4865.000000	9.793616	8.576419	1271.769709
4867.000000	10.760715	10.649569	1525.223562
4869.000000	9.401990	8.597612	924.573920
4871.000000	8.111490	9.155485	742.833123
4873.000000	9.428127	9.711799	901.231673
4875.000000	8.147883	8.262391	744.031957
4877.000000	7.761888	7.958405	417.681754
4879.000000	7.312492	7.695044	479.034133
4881.000000	7.571393	7.713743	746.668547
4883.000000	6.421533	6.481906	649.915319
4885.000000	6.143540	5.372734	371.205681
4887.000000	5.856394	6.063072	588.437948
4889.000000	5.988960	5.311647	814.368290
4891.000000	5.488857	5.091739	494.007405
4893.000000	4.331760	4.377075	551.717687
4895.000000	4.826017	4.497311	1135.698757
4897.000000	4.666616	4.415067	890.658147
4899.000000	4.400703	4.092129	393.217339
4901.000000	3.775766	3.813917	877.643380
4903.000000	3.946824	4.135891	860.266012
4905.000000	4.034492	4.572909	485.908660
4907.000000	3.532484	3.396671	533.955119
4909.000000	3.070386	3.051477	960.266109
4911.000000	2.855452	2.448142	710.892189
4913.000000	3.260934	3.022268	368.839756
4915.000000	3.179522	3.158059	676.347295
4917.000000	3.177974	3.020402	1006.932566
4919.000000	2.846729	3.026324	731.802387
4921.000000	2.695488	2.921822	572.431274
4923.000000	2.854412	2.979558	861.749777
4925.000000	2.343153	2.394249	749.419343
4927.000000	2.684873	2.670458	457.894985
4929.000000	2.433063	2.318955	684.118535
4931.000000	2.686327	2.590119	842.843018
4933.000000	2.650411	2.564524	678.574197
4935.000000	2.403272	2.723292	474.215974
4937.000000	2.197352	1.978355	865.003635
4939.000000	2.397012	2.349471	850.592940
4941.000000	2.626822	2.467432	631.642702
4943.000000	2.596472	2.652815	707.047851
4945.000000	2.446191	2.593927	755.078649
4947.000000	2.775356	2.854689	676.839889
4949.000000	2.573748	2.703474	319.994494
4951.000000	2.483217	2.223915	666.959653
4953.000000	2.481473	2.604032	875.103847
4955.000000	2.452491	2.353515	648.141073
4957.000000	2.689192	2.761920	798.645092
4959.000000	2.943990	2.730823	1190.237766
4961.000000	2.888903	3.016939	1158.759372
4963.000000	2.932889	2.666076	571.655023
4965.000000	2.936147	2.905386	1065.218386
4967.000000	2.709477	2.540892	1302.404388
4969.000000	3.040166	2.891031	873.073609
4971.000000	3.384514	3.098052	542.250308
4973.000000	3.447505	2.946981	1001.373894
4975.000000	3.384664	3.874222	988.508128
4977.000000	2.869876	2.776600	378.057290
4979.000000	3.701331	3.590371	692.861486
4981.000000	3.806212	3.555575	843.428042
4983.000000	4.074848	4.377570	749.238387
4985.000000	3.708566	3.610245	450.898976
4987.000000	3.776952	3.997254	686.509041
4989.000000	3.913073	3.995842	838.210965
4991.000000	4.467420	5.182327	572.446304
4993.000000	4.057348	3.913972	627.712573
4995.000000	4.019999	3.810338	620.548373
4997.000000	4.292082	4.380939	552.625540
4999.000000	5.192190	5.677793	244.171517
5001.000000	4.772374	5.303343	408.001368
5003.000000	4.860869	4.768473	323.865454
5005.000000	5.752512	5.296602	184.967712
5007.000000	5.264606	5.219879	276.270347
5009.000000	5.538748	5.337707	253.467745
5011.000000	4.760770	5.016957	217.251356
5013.000000	5.746092	5.747822	156.679343
5015.000000	5.428493	5.310114	127.010047
5017.000000	5.474655	5.465492	233.236087
5019.000000	6.065105	5.905422	129.792272
5021.000000	5.118805	5.462003	114.367879
5023.000000	6.517792	6.261224	134.256914
5025.000000	6.021745	6.745835	243.906710
5027.000000	6.099626	5.980386	199.645397
5029.000000	5.515116	5.161013	342.996137
5031.000000	6.293371	5.510264	403.017068
5033.000000	6.342861	6.039377	290.601800
5035.000000	6.391574	7.664277	291.462091
5037.000000	6.284896	6.148405	438.704507
5039.000000	6.486727	5.755496	297.519572
5041.000000	6.359627	7.067869	261.555173
5043.000000	6.397930	6.244676	291.227020
5045.000000	6.149352	5.918353	240.199700
5047.000000	7.041726	6.595990	235.260478
5049.000000	7.023273	7.084509	334.104122
5051.000000	6.523869	6.460995	456.093811
5053.000000	6.636976	6.156746	386.909449
5055.000000	6.025455	5.798467	413.240737
5057.000000	6.935617	7.564074	468.219946
5059.000000	6.427989	6.944710	693.045675
5061.000000	7.142904	7.285813	580.322032
5063.000000	7.414962	7.747448	335.114191
5065.000000	6.404900	6.016144	559.077910
5067.000000	7.008035	6.755038	351.221162
5069.000000	7.112560	6.838810	251.495242
5071.000000	6.975383	7.634308	177.653428
5073.000000	6.934142	7.500211	246.851161
5075.000000	7.060400	7.948464	320.681169
5077.000000	6.382313	6.733606	234.963333
5079.000000	6.384215	6.228656	276.688517
5081.000000	6.672699	6.761957	564.432527
5083.000000	5.690849	5.640286	453.705716
5085.000000	6.991137	6.749103	283.106482
5087.000000	6.608876	6.021742	367.466781
5089.000000	6.614578	6.092914	333.312174
5091.000000	6.357705	6.411302	157.513182
5093.000000	5.691730	5.667516	115.621998
5095.000000	6.806117	6.717272	234.692330
5097.000000	5.647117	5.657865	216.400293
5099.000000	5.337580	5.221631	132.145449
5101.000000	5.635569	5.492338	246.957386
5103.000000	5.719285	5.199844	280.676410
5105.000000	5.733192	5.746904	311.565297
5107.000000	5.957221	6.601918	473.654841
5109.000000	6.177576	5.630269	331.646474
5111.000000	5.033199	5.789808	331.573840
5113.000000	5.434085	5.509871	176.005722
5115.000000	5.686101	5.326887	251.120323
5117.000000	5.797895	5.784592	228.912141
5119.000000	6.163936	6.055373	148.434955
5121.000000	5.664563	5.251101	99.649491
5123.000000	5.963081	5.329568	185.273948
5125.000000	6.043674	5.974092	200.546588
5127.000000	5.484340	5.766926	130.442732
5129.000000	5.994997	6.252667	263.160344
5131.000000	6.917420	6.785962	413.901246
5133.000000	6.727996	6.699274	408.347199
5135.000000	6.336497	6.539879	81.336792
5137.000000	7.108374	8.103320	209.802080
5139.000000	7.119805	7.162922	225.098496
5141.000000	7.379443	7.433114	148.495255
5143.000000	8.271270	8.358304	121.419049
5145.000000	8.004497	8.042924	154.119280
5147.000000	7.553984	7.026019	103.259254
5149.000000	8.016692	8.133009	82.145651
5151.000000	9.991920	9.604963	332.784751
5153.000000	9.493525	9.776405	415.985607
5155.000000	7.661603	7.234601	224.798219
5157.000000	8.739243	8.946407	186.147073
5159.000000	10.285633	10.211577	433.918351
5161.000000	10.595496	10.402339	206.572580
5163.000000	10.831971	10.864585	199.548014
5165.000000	10.329181	10.643803	134.605286
5167.000000	9.832360	10.474532	226.216257
5169.000000	10.975935	10.034185	164.386227
5171.000000	12.185328	12.665697	53.330679
5173.000000	11.056459	11.700533	82.232125
5175.000000	11.166742	11.020227	126.221586
5177.000000	13.857394	15.489449	61.035270
5179.000000	12.142685	9.857974	57.579808
5181.000000	12.712040	13.119676	96.996112
5183.000000	13.972114	13.852381	51.831933
5185.000000	12.563076	11.533675	88.120588
5187.000000	13.986234	13.348452	94.617920
5189.000000	12.174735	12.441083	103.326243
5191.000000	14.018866	15.703430	78.377954
5193.000000	13.224052	13.205787	52.378961
5195.000000	12.224993	11.163548	38.482406
5197.000000	13.704892	12.834012	71.700969
5199.000000	13.041967	13.521983	71.654903
5201.000000	13.912243	14.442306	71.248234
5203.000000	13.749254	13.224372	106.955585
5205.000000	15.184748	14.319879	85.077284
5207.000000	12.753498	13.167062	86.653770
5209.000000	13.785889	15.747328	72.353992
5211.000000	12.173655	11.964969	37.055788
5213.000000	12.719226	12.021292	46.467431
5215.000000	13.638755	15.764480	48.186199
5217.000000	12.723282	11.159628	44.991284
5219.000000	12.884792	12.745064	55.302687
5221.000000	11.887455	11.726745	72.409696
5223.000000	10.753551	11.199810	67.216764
5225.000000	11.908571	12.254773	59.283179
5227.000000	12.378363	11.107619	42.757526
5229.000000	10.718851	9.916597	51.678579
5231.000000	10.986612	10.387888	61.234531
5233.000000	10.445017	9.752539	42.140354
5235.000000	10.669313	12.108472	59.910965
5237.000000	11.538612	11.636679	201.493875
5239.000000	10.112056	10.705891	129.160189
5241.000000	10.010371	9.580687	44.636210
5243.000000	9.393843	9.669179	49.405491
5245.000000	8.779772	8.903002	144.059374
5247.000000	9.300803	8.723418	96.869586
5249.000000	8.808709	8.266754	46.439788
5251.000000	8.993959	8.729982	45.673638
5253.000000	7.679716	7.513527	24.493151
5255.000000	7.781833	7.819071	53.633500
5257.000000	7.239825	7.921353	56.486102
5259.000000	6.807896	6.379587	28.208231
5261.000000	5.738182	6.349307	41.459925
5263.000000	5.838959	5.508503	22.871688
5265.000000	5.414140	4.937730	58.878610
5267.000000	6.304753	6.002786	76.811939
5269.000000	5.289118	5.393269	54.809500
5271.000000	5.548790	5.562406	89.907099
5273.000000	5.405648	5.740420	187.021726
5275.000000	5.064905	5.531751	135.921512
5277.000000	4.468132	4.353685	126.538515
5279.000000	4.449589	4.695318	128.312368
5281.000000	4.279056	3.897573	179.883687
5283.000000	4.233618	4.351678	85.897936
5285.000000	3.442013	3.154562	117.255193
5287.000000	3.055026	2.897168	185.763547
5289.000000	3.753901	3.584653	159.225592
5291.000000	3.011822	3.299333	86.397148
5293.000000	3.046717	2.957270	99.940474
5295.000000	3.097340	3.141718	212.424335
5297.000000	2.654107	2.440490	207.075725
5299.000000	2.939791	2.773206	163.051925
5301.000000	2.536269	2.650869	169.597043
5303.000000	2.374557	2.386353	108.060743
5305.000000	2.456262	2.448458	77.341001
5307.000000	2.087418	2.023519	63.764215
5309.000000	2.139432	2.353602	104.774407
5311.000000	2.112759	2.157412	110.997373
5313.000000	2.040911	2.175097	83.433954
5315.000000	1.788440	1.794699	217.656345
5317.000000	2.172640	2.164807	191.445569
5319.000000	2.162245	2.400522	105.594642
5321.000000	1.973818	1.851900	99.765812
5323.000000	1.935783	1.818274	185.906068
5325.000000	1.936594	1.776128	101.034664
5327.000000	1.814504	1.613786	100.827641
5329.000000	1.855005	1.744335	96.083082
5331.000000	1.889403	1.915469	163.648356
5333.000000	2.141756	2.077414	182.320820
5335.000000	2.102879	2.044819	120.262758
5337.000000	1.893355	1.907226	303.608186
5339.000000	1.941963	1.860355	353.084291
5341.000000	2.166726	2.108281	246.486725
5343.000000	1.707358	1.833542	361.132231
5345.000000	2.028133	1.998350	455.385547
5347.000000	1.999644	2.073590	443.470918
5349.000000	1.984759	2.029389	311.436371
5351.000000	2.107954	2.410386	451.547961
5353.000000	2.231894	2.301963	495.599872
5355.000000	2.290831	2.303858	246.791285
5357.000000	2.366472	2.350556	315.575027
5359.000000	2.353089	2.342552	259.446549
5361.000000	2.399907	2.417251	222.457867
5363.000000	2.467240	2.608669	115.081338
5365.000000	2.514766	2.607646	278.241860
5367.000000	2.574100	2.659360	381.940568
5369.000000	2.445830	2.460040	282.498711
5371.000000	2.404182	2.521018	202.604317
5373.000000	2.416440	2.311158	312.148549
5375.000000	2.436929	2.358627	269.327927
5377.000000	2.481420	2.719702	153.201232
5379.000000	2.682858	2.918816	194.830970
5381.000000	2.486566	2.578269	214.320179
5383.000000	2.564183	2.569231	116.888889
5385.000000	2.655916	2.348296	77.490101
5387.000000	2.885426	2.850601	158.642130
5389.000000	2.940596	3.183424	77.096631
5391.000000	2.990472	2.761682	48.314129
5393.000000	2.501791	2.209729	23.646800
5395.000000	3.092256	3.113910	62.761314
5397.000000	3.481681	3.784309	78.127964
5399.000000	3.497726	3.445646	54.092818
5401.000000	3.166754	2.974250	134.954790
5403.000000	3.399801	3.306378	169.069677
5405.000000	3.816977	3.684810	103.221057
5407.000000	3.274719	3.065239	156.779893
5409.000000	3.248738	3.519364	80.672177
5411.000000	3.461666	3.376238	179.016172
5413.000000	3.231582	2.828550	111.922056
5415.000000	3.505130	3.738052	106.800120
5417.000000	3.218017	3.063201	169.640960
5419.000000	3.539742	3.412424	39.086965
5421.000000	3.605104	3.533404	37.474537
5423.000000	3.538994	3.423571	67.723965
5425.000000	3.014072	2.899726	39.609131
5427.000000	3.414747	3.527434	23.246040
5429.000000	3.386669	3.568246	70.786793
5431.000000	3.167795	3.289574	59.064085
5433.000000	2.996617	3.170638	78.291687
5435.000000	2.971578	2.816924	27.740522
5437.000000	3.014702	3.137251	93.924245
5439.000000	3.151506	3.362833	51.687360
5441.000000	3.392075	3.490745	16.658111
5443.000000	3.487655	3.355554	19.528985
5445.000000	3.137992	3.325365	17.140751
5447.000000	2.824615	2.673295	21.096555
5449.000000	3.204230	3.016789	13.099526
5451.000000	2.806275	3.001312	14.306059
5453.000000	2.810548	2.662782	36.030901
5455.000000	2.622324	2.767365	14.124721
5457.000000	2.613947	2.500081	33.873093
5459.000000	2.534503	2.536269	35.527762
5461.000000	2.679438	2.365000	54.981711
5463.000000	2.583599	2.318506	19.445705
5465.000000	2.711831	2.404940	26.910296
5467.000000	2.491815	2.335572	16.871807
5469.000000	2.327022	2.250988	16.258912
5471.000000	2.675362	2.817274	9.287187
5473.000000	2.345661	2.438582	11.497134
5475.000000	2.641469	2.861583	14.293780
5477.000000	2.367365	2.552007	13.757935
5479.000000	2.397663	2.325847	25.495746
5481.000000	2.539755	2.380714	11.224773
5483.000000	2.255176	2.415262	18.460720
5485.000000	2.535098	2.552907	21.744259
5487.000000	2.602688	2.572882	9.002545
5489.000000	2.379149	2.376972	10.485398
5491.000000	2.439407	2.425717	7.943764
5493.000000	2.611169	2.577962	15.892340
5495.000000	2.521210	2.263586	24.284984
5497.000000	2.430969	2.388049	38.983750
5499.000000	2.390097	1.919275	14.374853
5501.000000	2.496803	2.678367	20.438962
