

# Refocussed
# Scan parameters: power 16.000000 dBm, bandwidth 1.500000 Hz
# Frequency [MHz]	avg noise	std noise	peak value
3851.000000	0.933517	0.889804	1045.698386
3853.000000	0.906704	0.846363	1200.829785
3855.000000	1.059996	1.030817	863.239549
3857.000000	1.123396	1.171638	992.610713
3859.000000	1.055151	0.980104	1443.255826
3861.000000	1.250855	1.267565	1308.110135
3863.000000	1.177868	1.245039	728.322609
3865.000000	1.133539	1.227310	1187.593641
3867.000000	1.103348	1.114289	1526.279264
3869.000000	0.894790	0.885013	905.947598
3871.000000	0.850054	0.816346	838.494344
3873.000000	0.837757	0.813486	1368.423691
3875.000000	0.880554	0.855434	1421.856634
3877.000000	0.768892	0.817513	941.198093
3879.000000	0.961895	1.104152	1537.023976
3881.000000	0.874153	0.926860	2067.396903
3883.000000	0.947127	0.842835	1714.326771
3885.000000	1.062150	1.102013	1165.809434
3887.000000	0.991753	1.027281	1919.749203
3889.000000	1.072881	1.178469	2174.031540
3891.000000	1.124838	1.302196	1179.209421
3893.000000	0.966100	1.032113	1628.523278
3895.000000	1.211542	1.235875	1952.567058
3897.000000	1.286624	1.312246	1683.313397
3899.000000	1.535357	1.478919	794.190085
3901.000000	2.775813	2.735222	1492.194114
3903.000000	4.150749	4.006690	1309.749506
3905.000000	5.270877	5.602940	815.181086
3907.000000	7.695500	7.275380	762.132329
3909.000000	6.964527	7.334928	1500.183342
3911.000000	5.872473	5.729204	1125.249473
3913.000000	4.766761	4.769636	616.028837
3915.000000	5.070706	4.712272	1037.466334
3917.000000	3.205973	3.108843	1262.108409
3919.000000	2.772906	2.704821	963.046010
3921.000000	2.413454	2.345159	921.318528
3923.000000	2.539557	2.327402	1664.152796
3925.000000	2.428114	2.234858	1270.766188
3927.000000	2.052823	2.105048	793.216582
3929.000000	2.559557	2.629062	1085.800554
3931.000000	2.964813	2.692695	1212.138468
3933.000000	3.536171	3.565442	961.030228
3935.000000	3.774185	3.624441	429.308387
3937.000000	3.482217	3.488407	512.240744
3939.000000	3.075101	3.176091	440.569669
3941.000000	3.635896	4.054634	212.251749
3943.000000	3.729244	3.642395	257.237366
3945.000000	2.795971	2.667433	433.990128
3947.000000	2.884321	2.565172	469.515895
3949.000000	2.650543	2.768205	291.996219
3951.000000	2.272299	2.274323	693.575016
3953.000000	2.060251	2.218123	1011.150776
3955.000000	1.935823	2.033229	721.746659
3957.000000	1.665137	1.542901	799.645718
3959.000000	1.452511	1.302885	1150.835296
3961.000000	1.391478	1.388760	929.705141
3963.000000	1.186823	1.237964	504.143832
3965.000000	1.067336	1.022604	1064.671246
3967.000000	1.038766	0.966374	1244.126002
3969.000000	1.034669	0.998096	927.915172
3971.000000	0.936550	0.945699	731.154657
3973.000000	0.920177	0.848207	1065.457200
3975.000000	0.953981	0.886170	877.945797
3977.000000	0.840575	0.868811	448.982814
3979.000000	0.716340	0.738242	530.917986
3981.000000	0.745735	0.741455	602.758058
3983.000000	0.723418	0.690949	498.571823
3985.000000	0.970265	1.060958	391.008588
3987.000000	0.880162	0.874003	821.614105
3989.000000	0.822336	0.745233	1052.670655
3991.000000	1.106414	0.975134	702.863380
3993.000000	0.877963	0.982713	947.335054
3995.000000	1.014045	0.975089	1566.875219
3997.000000	1.139392	1.138170	1365.504380
3999.000000	1.223704	1.273900	725.481440
4001.000000	1.415835	1.561327	1501.875711
4003.000000	1.577920	1.665278	1783.795507
4005.000000	1.471859	1.438846	1186.152049
4007.000000	1.405244	1.319017	1009.677428
4009.000000	1.695724	1.822509	1478.950799
4011.000000	1.607271	1.588358	970.671210
4013.000000	1.677643	1.593023	394.932882
4015.000000	2.130003	2.071937	609.328445
4017.000000	2.251467	2.017659	692.414020
4019.000000	2.527403	2.262157	497.654449
4021.000000	2.585682	2.587582	304.413724
4023.000000	2.794607	2.718847	674.674783
4025.000000	2.561014	2.542648	629.519216
4027.000000	2.920687	3.250583	480.841575
4029.000000	3.046659	2.861240	569.572079
4031.000000	3.302673	3.694348	852.905219
4033.000000	3.338383	3.748830	674.028900
4035.000000	3.347705	3.330915	472.434966
4037.000000	3.677233	3.297205	888.551574
4039.000000	3.331354	3.545414	966.592857
4041.000000	4.201314	4.342214	596.617022
4043.000000	4.797054	4.569781	627.029425
4045.000000	4.080517	4.475136	834.951453
4047.000000	4.667718	4.911362	668.655939
4049.000000	4.325803	4.212780	340.370807
4051.000000	5.112976	4.626078	643.118576
4053.000000	4.831953	4.600402	646.350934
4055.000000	5.399789	5.379280	287.438340
4057.000000	5.379177	5.317035	225.045930
4059.000000	5.279120	5.221091	200.490964
4061.000000	4.975995	5.051528	157.761580
4063.000000	4.744497	4.858116	84.669337
4065.000000	4.322711	4.857073	166.733360
4067.000000	3.826661	3.424382	187.198816
4069.000000	3.846735	3.502496	99.128169
4071.000000	3.165370	3.349914	143.285350
4073.000000	3.275714	3.205403	264.055140
4075.000000	3.148867	3.031220	222.724643
4077.000000	3.149821	3.139378	136.464250
4079.000000	3.256392	3.258908	270.605548
4081.000000	2.815550	2.609894	507.742748
4083.000000	2.124230	2.255061	410.345974
4085.000000	2.228688	2.174052	298.698288
4087.000000	2.041588	2.128052	606.549485
4089.000000	1.601395	1.591985	611.687233
4091.000000	1.942448	1.858169	515.002014
4093.000000	1.502283	1.279099	667.212006
4095.000000	1.492276	1.608618	1130.553135
4097.000000	1.478876	1.630856	993.039213
4099.000000	1.258285	1.171311	554.823950
4101.000000	1.210974	1.207531	1128.178676
4103.000000	1.026586	1.000740	994.300924
4105.000000	1.042178	1.036482	594.738171
4107.000000	0.924217	0.903748	577.533883
4109.000000	0.831145	0.735143	821.801680
4111.000000	0.818354	0.786720	700.640936
4113.000000	0.774866	0.774257	341.898828
4115.000000	0.486891	0.566995	595.949997
4117.000000	0.601588	0.587143	681.411676
4119.000000	0.521106	0.552946	451.113736
4121.000000	0.567328	0.557565	302.882002
4123.000000	0.463019	0.473976	499.007295
4125.000000	0.536298	0.601988	408.215303
4127.000000	0.431212	0.404656	273.557541
4129.000000	0.509917	0.542072	383.845738
4131.000000	0.468310	0.441089	526.747862
4133.000000	0.458983	0.469557	405.440953
4135.000000	0.422936	0.429045	298.012273
4137.000000	0.419608	0.429790	493.744830
4139.000000	0.410348	0.442373	507.066312
4141.000000	0.473125	0.503803	296.788344
4143.000000	0.379513	0.372171	337.687610
4145.000000	0.392564	0.411188	440.875633
4147.000000	0.373543	0.359284	317.615976
4149.000000	0.382563	0.414738	131.173421
4151.000000	0.377839	0.383502	253.788808
4153.000000	0.328460	0.307233	281.052412
4155.000000	0.378525	0.420113	191.281853
4157.000000	0.341888	0.353183	168.753445
4159.000000	0.367912	0.374738	212.992626
4161.000000	0.387925	0.317645	152.143465
4163.000000	0.385954	0.389624	52.232755
4165.000000	0.335938	0.309275	87.146775
4167.000000	0.429691	0.444091	79.204773
4169.000000	0.447557	0.480146	47.410319
4171.000000	0.620263	0.619982	38.706392
4173.000000	0.721754	0.762079	39.816777
4175.000000	0.687927	0.689337	36.445711
4177.000000	0.837797	0.804563	29.968309
4179.000000	0.992549	1.044718	22.413099
4181.000000	1.642801	1.573629	18.969457
4183.000000	2.144191	2.024118	17.182609
4185.000000	2.634490	2.605977	12.810371
4187.000000	3.125872	2.883547	13.072606
4189.000000	3.499140	3.455446	22.548133
4191.000000	3.916748	4.774064	45.216320
4193.000000	3.692938	3.354119	25.588493
4195.000000	4.340923	4.536142	45.417778
4197.000000	5.325173	5.748854	40.604747
4199.000000	4.363654	4.108901	20.219466
4201.000000	6.432663	5.887806	25.256232
4203.000000	5.640789	5.530236	38.933581
4205.000000	5.598908	5.061590	27.928478
4207.000000	5.339430	5.455346	28.266358
4209.000000	5.453115	5.910730	51.424003
4211.000000	4.711836	4.595698	53.756454
4213.000000	5.611398	5.374344	30.379623
4215.000000	5.723829	5.162869	33.403759
4217.000000	6.048656	5.204579	41.786802
4219.000000	6.547718	6.268283	80.558262
4221.000000	5.775387	5.808087	38.970678
4223.000000	6.257552	7.284844	77.261734
4225.000000	6.088169	6.261323	53.397434
4227.000000	6.561626	6.208367	41.048757
4229.000000	6.159763	5.651842	48.480145
4231.000000	5.369534	5.037535	50.322169
4233.000000	5.065830	4.894904	97.177753
4235.000000	7.407884	7.786961	41.975604
4237.000000	5.190010	4.732169	47.202672
4239.000000	3.863972	3.502826	40.136688
4241.000000	4.474475	4.636613	24.652266
4243.000000	3.672673	3.784398	27.853177
4245.000000	3.688432	3.180198	23.586869
4247.000000	3.062596	2.919336	17.721336
4249.000000	3.325202	3.329156	21.827419
4251.000000	3.539758	3.549183	18.509052
4253.000000	3.262958	3.107852	38.285016
4255.000000	3.060872	3.385939	18.929135
4257.000000	2.523616	2.505160	19.107710
4259.000000	3.162250	2.717900	14.554229
4261.000000	2.274963	2.327359	13.618799
4263.000000	2.456032	2.621758	11.440797
4265.000000	2.371966	2.501525	11.694275
4267.000000	1.996694	1.824114	10.883874
4269.000000	1.829390	1.742809	11.324594
4271.000000	1.991165	1.929605	6.039036
4273.000000	1.757531	1.781497	6.890847
4275.000000	1.437612	1.499493	5.539178
4277.000000	1.284606	1.223295	5.977559
4279.000000	1.101735	1.074948	9.165836
4281.000000	1.054177	0.979476	5.305521
4283.000000	0.949215	0.918903	7.459998
4285.000000	0.882309	0.877327	4.464909
4287.000000	0.676955	0.688800	2.557975
4289.000000	0.531377	0.550321	3.500967
4291.000000	0.476856	0.537123	2.073054
4293.000000	0.382019	0.394458	1.545684
4295.000000	0.330406	0.331412	1.799767
4297.000000	0.318653	0.340608	4.081235
4299.000000	0.344411	0.296655	3.720735
4301.000000	0.323203	0.325763	14.303450
4303.000000	0.293954	0.303986	16.595557
4305.000000	0.353727	0.356839	14.579895
4307.000000	0.344549	0.311211	18.659742
4309.000000	0.299106	0.337644	33.366087
4311.000000	0.425732	0.433242	27.290481
4313.000000	0.511619	0.507777	27.008732
4315.000000	0.621781	0.546129	60.052190
4317.000000	0.762493	0.769874	98.469809
4319.000000	0.967291	0.905871	61.162244
4321.000000	1.298062	1.238834	72.437917
4323.000000	1.710886	1.510508	115.104237
4325.000000	1.682974	1.542828	145.437105
4327.000000	1.875550	1.629203	99.131238
4329.000000	1.837234	1.680650	148.806985
4331.000000	2.163627	2.250367	225.783172
4333.000000	2.123622	2.016959	216.651060
4335.000000	2.233143	2.326973	115.879980
4337.000000	2.472395	2.487832	265.743830
4339.000000	2.226768	2.186586	335.379608
4341.000000	2.302965	2.390073	212.460755
4343.000000	2.625342	2.418752	224.677454
4345.000000	2.653521	2.774596	318.478405
4347.000000	2.862024	2.865510	251.701355
4349.000000	2.931354	3.290802	114.409079
4351.000000	2.733623	2.551813	232.894140
4353.000000	3.086582	3.211628	279.765017
4355.000000	3.304570	3.397647	205.162419
4357.000000	2.834110	2.674059	184.733757
4359.000000	3.314440	2.761613	259.824549
4361.000000	3.085402	3.067245	184.053266
4363.000000	3.248716	3.543570	88.176832
4365.000000	3.029654	3.037458	198.183373
4367.000000	2.343357	2.112346	153.387169
4369.000000	2.543226	2.316498	118.698371
4371.000000	2.543296	2.746631	96.115624
4373.000000	2.130030	2.190594	148.468678
4375.000000	2.444821	2.748764	119.177962
4377.000000	2.042318	2.350731	48.399510
4379.000000	2.103777	1.984617	71.816737
4381.000000	2.036826	1.943674	60.946040
4383.000000	1.679728	1.560117	44.212569
4385.000000	1.731654	1.591417	10.967860
4387.000000	1.729784	1.772036	30.848810
4389.000000	1.846721	1.964594	37.009182
4391.000000	1.461533	1.533196	27.272694
4393.000000	1.527928	1.382404	28.608150
4395.000000	1.763931	1.697201	71.975375
4397.000000	1.637828	1.663595	52.681152
4399.000000	1.593186	1.582945	24.485399
4401.000000	1.680716	1.695892	57.871107
4403.000000	1.924440	1.999227	97.663938
4405.000000	2.102178	2.328171	105.685738
4407.000000	2.168875	2.059085	134.749950
4409.000000	2.265585	2.128182	120.019299
4411.000000	2.575310	2.331848	130.479849
4413.000000	2.601527	2.460247	67.966357
4415.000000	2.529901	2.210075	114.206863
4417.000000	2.820499	2.941285	111.968802
4419.000000	2.710846	2.774564	49.059249
4421.000000	2.468487	2.255526	63.789404
4423.000000	2.501893	2.279837	94.872675
4425.000000	2.382346	2.292810	111.166734
4427.000000	2.107730	2.380801	43.088575
4429.000000	2.166296	2.025009	75.617039
4431.000000	2.279308	2.397978	111.723194
4433.000000	2.319284	2.573154	80.362852
4435.000000	2.300656	2.326630	71.530038
4437.000000	2.280126	2.261414	100.921246
4439.000000	1.904649	1.757610	84.738640
4441.000000	2.045434	2.005778	82.642235
4443.000000	1.693314	1.590828	57.635501
4445.000000	1.856750	1.827085	82.041318
4447.000000	1.409293	1.511503	82.513257
4449.000000	1.306495	1.248703	52.662830
4451.000000	1.432674	1.467213	89.462594
4453.000000	1.193996	1.243191	83.180685
4455.000000	0.829933	0.803257	68.185932
4457.000000	0.921442	0.918942	49.257522
4459.000000	0.804990	0.838798	78.760005
4461.000000	0.734081	0.692472	76.212929
4463.000000	0.692187	0.715002	38.426615
4465.000000	0.692999	0.662008	101.655827
4467.000000	0.527102	0.472998	136.801714
4469.000000	0.546954	0.580545	116.461406
4471.000000	0.562546	0.524274	97.460929
4473.000000	0.498938	0.508068	136.193992
4475.000000	0.444380	0.427332	120.513679
4477.000000	0.458937	0.430151	48.342386
4479.000000	0.438784	0.436687	96.802444
4481.000000	0.505456	0.466428	83.887357
4483.000000	0.584354	0.537386	75.159938
4485.000000	0.659708	0.591309	55.523084
4487.000000	0.710308	0.825926	105.907652
4489.000000	0.800198	0.793238	70.033936
4491.000000	0.756304	0.739368	48.611367
4493.000000	0.729211	0.804574	56.268501
4495.000000	0.999620	0.980162	80.573048
4497.000000	1.084197	1.101111	49.929208
4499.000000	1.326590	1.276951	28.706926
4501.000000	1.584080	1.581593	79.159161
4503.000000	1.886890	1.637829	50.950666
4505.000000	2.296895	2.059500	41.255503
4507.000000	2.297352	2.528192	47.745333
4509.000000	2.139382	2.201205	63.648536
4511.000000	2.398322	2.494490	54.597541
4513.000000	2.510281	2.464805	42.610851
4515.000000	2.435327	2.541357	72.224832
4517.000000	2.267581	2.331089	105.761188
4519.000000	2.322766	2.337263	51.817948
4521.000000	1.838998	1.654829	42.619308
4523.000000	1.528032	1.502356	112.861014
4525.000000	1.268294	1.426348	92.747851
4527.000000	1.147579	1.076801	58.332143
4529.000000	0.969761	0.999202	68.037344
4531.000000	0.931217	0.912481	84.279558
4533.000000	0.833653	0.827355	94.390022
4535.000000	0.867101	0.795604	61.221643
4537.000000	0.599062	0.544602	103.416411
4539.000000	0.449478	0.445677	87.931037
4541.000000	0.372892	0.352496	42.801231
4543.000000	0.379584	0.385459	32.064489
4545.000000	0.314101	0.322629	39.023640
4547.000000	0.382999	0.363883	40.058159
4549.000000	0.306056	0.283465	27.451362
4551.000000	0.306450	0.325145	53.935522
4553.000000	0.261320	0.251354	56.457471
4555.000000	0.248381	0.273547	28.355941
4557.000000	0.265272	0.278533	20.120259
4559.000000	0.237937	0.249918	32.834184
4561.000000	0.217960	0.208334	32.184704
4563.000000	0.215470	0.236495	10.247323
4565.000000	0.223068	0.206518	12.120414
4567.000000	0.219492	0.209451	10.548233
4569.000000	0.194503	0.189874	6.528262
4571.000000	0.214327	0.203467	6.193838
4573.000000	0.220377	0.248357	13.313843
4575.000000	0.199919	0.191472	10.502836
4577.000000	0.190352	0.184242	10.867007
4579.000000	0.203706	0.210676	9.697441
4581.000000	0.184393	0.184099	7.709520
4583.000000	0.200385	0.202307	1.783043
4585.000000	0.196578	0.204026	2.419873
4587.000000	0.171400	0.192137	4.965799
4589.000000	0.219794	0.214302	17.635245
4591.000000	0.195803	0.191143	17.842769
4593.000000	0.196759	0.190615	28.258767
4595.000000	0.240316	0.260528	40.846865
4597.000000	0.271466	0.250013	31.576729
4599.000000	0.253154	0.253568	12.707982
4601.000000	0.268222	0.246335	27.821967
4603.000000	0.265502	0.262598	38.212065
4605.000000	0.288720	0.275691	30.152708
4607.000000	0.273474	0.315390	40.735062
4609.000000	0.296823	0.284750	49.822536
4611.000000	0.299617	0.301327	52.763873
4613.000000	0.296241	0.287153	25.512815
4615.000000	0.348428	0.343434	51.421370
4617.000000	0.262317	0.245111	84.336842
4619.000000	0.274771	0.251597	53.929060
4621.000000	0.296434	0.292699	54.139220
4623.000000	0.277248	0.249681	108.193285
4625.000000	0.286817	0.313076	115.119678
4627.000000	0.278905	0.308928	71.443352
4629.000000	0.274426	0.272258	111.075825
4631.000000	0.294954	0.290742	153.099314
4633.000000	0.281300	0.272931	113.602374
4635.000000	0.332441	0.325884	66.934094
4637.000000	0.259973	0.285110	103.445225
4639.000000	0.297946	0.301839	78.050754
4641.000000	0.240016	0.227220	42.513084
4643.000000	0.237172	0.252864	54.305469
4645.000000	0.271401	0.274600	85.067760
4647.000000	0.291510	0.259683	63.892934
4649.000000	0.298264	0.283262	35.830862
4651.000000	0.256713	0.246665	63.612499
4653.000000	0.286496	0.263317	67.103979
4655.000000	0.307444	0.318754	55.946215
4657.000000	0.304092	0.294666	44.362427
4659.000000	0.341329	0.300733	75.531562
4661.000000	0.300074	0.285821	47.768051
4663.000000	0.324014	0.316037	27.845399
4665.000000	0.359877	0.337276	65.021448
4667.000000	0.370381	0.385299	77.359947
4669.000000	0.367266	0.328534	52.381625
4671.000000	0.379139	0.342287	47.380258
4673.000000	0.335566	0.352403	60.424612
4675.000000	0.383382	0.367598	51.129678
4677.000000	0.319361	0.339523	29.734476
4679.000000	0.376625	0.381989	30.016898
4681.000000	0.319790	0.337660	29.123688
4683.000000	0.341089	0.386192	13.735801
4685.000000	0.333911	0.336032	7.435175
4687.000000	0.344670	0.352218	2.373200
4689.000000	0.345823	0.360727	5.394220
4691.000000	0.375599	0.364763	7.388435
4693.000000	0.346353	0.350622	15.708315
4695.000000	0.335537	0.285241	17.966113
4697.000000	0.413805	0.384681	11.618737
4699.000000	0.384665	0.373151	5.062832
4701.000000	0.384132	0.374118	2.339079
4703.000000	0.370607	0.324576	2.904074
4705.000000	0.389146	0.371760	7.422308
4707.000000	0.456603	0.431561	3.444890
4709.000000	0.457916	0.537377	16.509089
4711.000000	0.448620	0.388590	29.512379
4713.000000	0.502356	0.468995	11.608136
4715.000000	0.444128	0.425034	37.071733
4717.000000	0.461021	0.432593	62.611030
4719.000000	0.599998	0.583740	43.486100
4721.000000	0.505175	0.465144	32.995668
4723.000000	0.535301	0.538100	51.673154
4725.000000	0.618808	0.677069	54.104730
4727.000000	0.649102	0.601674	31.498310
4729.000000	0.575911	0.599055	51.895024
4731.000000	0.603207	0.587913	67.222981
4733.000000	0.642945	0.670393	56.097036
4735.000000	0.717709	0.696234	42.322238
4737.000000	0.676604	0.599275	51.117327
4739.000000	0.740387	0.817781	93.804378
4741.000000	0.677584	0.656674	73.513727
4743.000000	0.754346	0.712180	75.033171
4745.000000	0.793704	0.850569	137.610228
4747.000000	0.796150	0.796812	100.434446
4749.000000	0.803796	0.726614	60.151293
4751.000000	0.770642	0.744143	116.597425
4753.000000	0.874907	0.972177	89.545255
4755.000000	0.881452	0.905517	70.391029
4757.000000	0.906809	0.950617	99.120143
4759.000000	0.822725	0.826924	123.746917
4761.000000	0.959116	0.988925	130.771351
4763.000000	1.044982	1.008053	97.703158
4765.000000	0.931102	1.065568	225.545754
4767.000000	1.080662	1.025227	302.849344
4769.000000	0.911111	1.085725	201.703705
4771.000000	0.996627	0.975134	179.060304
4773.000000	0.994376	1.055732	315.467642
4775.000000	1.002753	0.890174	296.487726
4777.000000	0.924971	0.970811	154.994590
4779.000000	1.006207	1.009466	279.978972
4781.000000	1.024004	1.000365	421.028054
4783.000000	0.970803	0.953047	307.973548
4785.000000	1.149595	1.202670	195.578631
4787.000000	0.995148	1.007298	412.987508
4789.000000	1.025537	0.986217	441.796596
4791.000000	1.084803	0.980140	227.070403
4793.000000	0.877892	0.924520	333.354791
4795.000000	0.926109	0.875442	389.874796
4797.000000	0.958212	0.834265	270.643074
4799.000000	0.880671	0.735590	126.413925
4801.000000	0.776196	0.720295	262.061976
4803.000000	0.796932	0.811429	266.793884
4805.000000	0.836033	0.815333	253.891637
4807.000000	0.779898	0.835415	306.602823
4809.000000	0.761248	0.766469	438.073289
4811.000000	0.763057	0.714717	422.172345
4813.000000	0.703258	0.682280	200.084570
4815.000000	0.756230	0.669495	444.259827
4817.000000	0.727631	0.732227	577.756409
4819.000000	0.671492	0.655279	449.425935
4821.000000	0.648093	0.622880	407.123809
4823.000000	0.626520	0.642872	743.192760
4825.000000	0.608119	0.559089	709.775390
4827.000000	0.615650	0.725455	421.979923
4829.000000	0.575035	0.622244	681.967490
4831.000000	0.610746	0.670952	922.938655
4833.000000	0.598955	0.594702	749.759048
4835.000000	0.586536	0.591682	499.429300
4837.000000	0.531172	0.549321	878.082883
4839.000000	0.562412	0.539983	807.735703
4841.000000	0.488009	0.460852	470.605347
4843.000000	0.471386	0.503351	492.010547
4845.000000	0.368373	0.363704	604.486055
4847.000000	0.415322	0.443778	455.341545
4849.000000	0.470069	0.471574	195.091679
4851.000000	0.422247	0.427402	402.254702
4853.000000	0.415669	0.399044	354.358912
4855.000000	0.388608	0.357632	201.644050
4857.000000	0.346704	0.361410	156.242837
4859.000000	0.367825	0.333362	181.309684
4861.000000	0.338818	0.350915	144.829988
4863.000000	0.310132	0.308147	81.217661
4865.000000	0.323109	0.289549	151.284106
4867.000000	0.301414	0.322601	200.400854
4869.000000	0.266343	0.293224	129.991406
4871.000000	0.295046	0.317530	109.950661
4873.000000	0.286461	0.283709	172.523618
4875.000000	0.248219	0.240091	140.540382
4877.000000	0.209822	0.206221	59.347229
4879.000000	0.245703	0.266794	77.301139
4881.000000	0.237437	0.236806	96.510159
4883.000000	0.225283	0.223867	62.130539
4885.000000	0.205833	0.214727	27.605968
4887.000000	0.179970	0.176005	42.845825
4889.000000	0.161560	0.142635	33.750213
4891.000000	0.139684	0.126809	22.293815
4893.000000	0.164687	0.174835	38.032232
4895.000000	0.160030	0.168711	74.986614
4897.000000	0.138411	0.129781	52.019408
4899.000000	0.151189	0.146422	23.589188
4901.000000	0.138884	0.138164	46.953078
4903.000000	0.145041	0.151055	49.488100
4905.000000	0.154771	0.144840	35.352358
4907.000000	0.139866	0.141687	38.511624
4909.000000	0.170164	0.174668	63.307735
4911.000000	0.187243	0.179529	64.668963
4913.000000	0.159086	0.159962	36.615087
4915.000000	0.160568	0.155815	79.415329
4917.000000	0.151935	0.153536	112.812481
4919.000000	0.136932	0.146881	84.001860
4921.000000	0.156098	0.148795	68.850275
4923.000000	0.179729	0.164473	108.119453
4925.000000	0.161824	0.166591	106.429183
4927.000000	0.142995	0.145584	70.007677
4929.000000	0.146154	0.128998	128.143155
4931.000000	0.171756	0.183632	202.637096
4933.000000	0.137219	0.137424	177.035763
4935.000000	0.153011	0.158031	119.177041
4937.000000	0.142765	0.135369	229.294526
4939.000000	0.158351	0.150836	233.646571
4941.000000	0.143640	0.137006	144.450633
4943.000000	0.149169	0.131645	173.372251
4945.000000	0.162525	0.152322	224.815761
4947.000000	0.173687	0.154972	165.707962
4949.000000	0.159199	0.162353	84.828408
4951.000000	0.197507	0.188562	185.426396
4953.000000	0.156132	0.153478	198.490689
4955.000000	0.171504	0.179161	162.171823
4957.000000	0.157612	0.146142	168.955990
4959.000000	0.169674	0.162321	258.860231
4961.000000	0.173686	0.171384	240.343998
4963.000000	0.216227	0.213788	128.478877
4965.000000	0.222763	0.218495	227.473725
4967.000000	0.205961	0.211766	258.736834
4969.000000	0.218996	0.227689	167.674797
4971.000000	0.220523	0.233661	122.060813
4973.000000	0.202531	0.195784	182.552134
4975.000000	0.224730	0.231259	166.086979
4977.000000	0.222989	0.216884	100.988784
4979.000000	0.205225	0.208606	149.281468
4981.000000	0.214349	0.218624	191.956853
4983.000000	0.233802	0.221025	156.266127
4985.000000	0.280971	0.277064	108.628599
4987.000000	0.285648	0.320696	203.398004
4989.000000	0.271380	0.268118	214.236603
4991.000000	0.274037	0.284057	143.542976
4993.000000	0.280991	0.279930	166.503967
4995.000000	0.295407	0.316581	232.682640
4997.000000	0.317203	0.267705	182.045009
4999.000000	0.318520	0.293040	60.184062
5001.000000	0.333164	0.337662	130.394730
5003.000000	0.294963	0.300977	102.869956
5005.000000	0.316204	0.305866	58.021669
5007.000000	0.316850	0.296946	58.395510
5009.000000	0.325316	0.345454	93.814046
5011.000000	0.289350	0.283743	66.476689
5013.000000	0.343318	0.377826	39.948419
5015.000000	0.303905	0.335197	59.030725
5017.000000	0.307425	0.284117	86.989770
5019.000000	0.311635	0.279833	57.404555
5021.000000	0.362031	0.312301	43.857594
5023.000000	0.370098	0.353548	69.381900
5025.000000	0.350452	0.352057	88.164496
5027.000000	0.289722	0.289144	62.914943
5029.000000	0.307197	0.294787	94.969593
5031.000000	0.360719	0.324382	122.169422
5033.000000	0.373618	0.302949	92.603146
5035.000000	0.389637	0.388478	65.423555
5037.000000	0.482589	0.473495	119.295955
5039.000000	0.415217	0.422449	139.082435
5041.000000	0.428815	0.397516	66.285557
5043.000000	0.461837	0.444538	97.021410
5045.000000	0.505759	0.482183	113.888641
5047.000000	0.486246	0.506588	92.900176
5049.000000	0.460174	0.458673	64.239810
5051.000000	0.534594	0.574861	127.556439
5053.000000	0.627478	0.596371	169.788554
5055.000000	0.604810	0.696601	124.703277
5057.000000	0.697574	0.835803	146.351759
5059.000000	0.646226	0.601138	208.391949
5061.000000	0.736985	0.674604	168.518232
5063.000000	0.740171	0.723249	82.887039
5065.000000	0.675396	0.681884	147.362143
5067.000000	0.737304	0.772804	157.790276
5069.000000	0.992840	0.963113	82.234797
5071.000000	0.944882	0.975354	68.053623
5073.000000	0.806680	0.730580	129.897511
5075.000000	1.089396	1.219766	95.847270
5077.000000	1.014251	0.905051	85.252716
5079.000000	1.194909	1.120269	116.564204
5081.000000	1.287765	1.379881	164.436970
5083.000000	1.468524	1.330482	112.503428
5085.000000	1.154904	1.175848	91.500929
5087.000000	1.138371	1.090253	107.951157
5089.000000	1.280969	1.251922	115.838642
5091.000000	1.461697	1.453688	75.903873
5093.000000	1.047668	0.987813	53.593637
5095.000000	1.102957	0.988009	48.618018
5097.000000	1.068714	1.014065	46.915902
5099.000000	0.883319	0.934118	35.992131
5101.000000	0.746338	0.728819	84.564578
5103.000000	0.771445	0.843546	102.627194
5105.000000	0.713890	0.721899	66.796962
5107.000000	0.647885	0.685687	73.473040
5109.000000	0.632894	0.615310	89.753060
5111.000000	0.605619	0.719408	78.021438
5113.000000	0.544634	0.573018	38.035162
5115.000000	0.488588	0.481917	46.212361
5117.000000	0.466431	0.487345	61.772614
5119.000000	0.462443	0.459497	41.068186
5121.000000	0.432337	0.400219	35.494873
5123.000000	0.446336	0.480557	104.234403
5125.000000	0.459470	0.539457	101.866698
5127.000000	0.578862	0.550811	54.895161
5129.000000	0.537772	0.528362	85.517727
5131.000000	0.559926	0.474212	112.164666
5133.000000	0.564941	0.565891	73.145731
5135.000000	0.585084	0.591536	46.042606
5137.000000	0.577578	0.565343	57.936538
5139.000000	0.626742	0.628562	52.227559
5141.000000	0.720652	0.750507	34.146697
5143.000000	0.722283	0.756952	48.506819
5145.000000	0.733585	0.669744	51.378456
5147.000000	0.739593	0.730933	37.260249
5149.000000	0.920513	0.999105	34.508429
5151.000000	0.784040	0.785531	98.773907
5153.000000	0.784809	0.797122	88.324739
5155.000000	0.878688	0.967307	51.385915
5157.000000	0.964971	1.096525	71.389344
5159.000000	0.887491	0.982052	154.706986
5161.000000	0.867835	0.938179	103.070408
5163.000000	0.980571	0.927074	58.779926
5165.000000	0.936693	0.829652	91.281461
5167.000000	0.942272	0.858376	72.299289
5169.000000	0.865494	0.863987	38.447048
5171.000000	0.930663	0.917208	18.818932
5173.000000	0.841795	0.794820	21.635603
5175.000000	0.815773	0.774289	27.943108
5177.000000	0.883067	0.797699	21.606238
5179.000000	0.818198	0.812891	41.961570
5181.000000	0.737868	0.696769	30.831086
5183.000000	0.726064	0.702478	15.565816
5185.000000	0.626567	0.684599	3.918198
5187.000000	0.556350	0.502454	14.007556
5189.000000	0.569462	0.534265	9.356388
5191.000000	0.597028	0.572244	10.022412
5193.000000	0.690579	0.659466	17.368299
5195.000000	0.666226	0.610681	26.119349
5197.000000	0.649111	0.631507	25.855236
5199.000000	0.570892	0.524293	13.730765
5201.000000	0.522612	0.543864	16.113703
5203.000000	0.480786	0.479525	19.669373
5205.000000	0.502503	0.520820	19.050533
5207.000000	0.528864	0.522938	16.882626
5209.000000	0.438037	0.485790	10.957257
5211.000000	0.422233	0.396195	9.857843
5213.000000	0.417949	0.424515	7.603661
5215.000000	0.380547	0.351297	17.946497
5217.000000	0.442073	0.436998	16.035590
5219.000000	0.396125	0.388189	7.422273
5221.000000	0.387224	0.461693	24.695366
5223.000000	0.381172	0.378416	27.305087
5225.000000	0.308058	0.282234	19.119961
5227.000000	0.342205	0.374627	15.316230
5229.000000	0.318061	0.313926	12.432458
5231.000000	0.226158	0.252788	23.722814
5233.000000	0.281012	0.254292	16.938971
5235.000000	0.262549	0.253648	16.585533
5237.000000	0.271295	0.244674	45.704808
5239.000000	0.273190	0.272623	49.260335
5241.000000	0.266917	0.276848	29.948507
5243.000000	0.236036	0.243051	32.942853
5245.000000	0.236685	0.228741	43.761204
5247.000000	0.231552	0.224639	31.236650
5249.000000	0.230175	0.216609	17.593853
5251.000000	0.207541	0.225678	22.944895
5253.000000	0.257317	0.294481	32.664809
5255.000000	0.211109	0.208483	23.323168
5257.000000	0.211682	0.189950	18.510354
5259.000000	0.211361	0.186180	23.173127
5261.000000	0.218482	0.208465	21.019922
5263.000000	0.207529	0.186237	14.100950
5265.000000	0.236580	0.253538	33.048769
5267.000000	0.229232	0.209658	39.197826
5269.000000	0.206634	0.198942	38.100764
5271.000000	0.210124	0.209387	34.455259
5273.000000	0.196786	0.195670	86.549630
5275.000000	0.186837	0.195231	79.887517
5277.000000	0.172412	0.169486	44.145121
5279.000000	0.242904	0.234789	76.858759
5281.000000	0.196469	0.191231	91.949853
5283.000000	0.187832	0.201113	65.232936
5285.000000	0.212643	0.186179	43.323750
5287.000000	0.234314	0.222385	84.851676
5289.000000	0.178788	0.189126	89.568087
5291.000000	0.177763	0.179957	60.757378
5293.000000	0.199416	0.210779	101.818226
5295.000000	0.166565	0.184135	136.850801
5297.000000	0.158342	0.160607	118.522086
5299.000000	0.163505	0.194480	67.342361
5301.000000	0.187168	0.191047	131.250658
5303.000000	0.165769	0.160062	127.281690
5305.000000	0.178511	0.170564	74.807040
5307.000000	0.189141	0.174670	67.758188
5309.000000	0.169755	0.183877	89.217139
5311.000000	0.161044	0.167602	74.374120
5313.000000	0.168154	0.155006	45.100537
5315.000000	0.151475	0.156051	100.969651
5317.000000	0.142999	0.135950	115.023439
5319.000000	0.163446	0.187068	63.819522
5321.000000	0.165541	0.158503	46.444654
5323.000000	0.161439	0.154164	101.833602
5325.000000	0.171245	0.161787	77.033349
5327.000000	0.170279	0.162791	42.762560
5329.000000	0.169579	0.184394	61.323733
5331.000000	0.179974	0.197728	87.547187
5333.000000	0.162182	0.139711	67.173057
5335.000000	0.173582	0.175691	55.317449
5337.000000	0.187204	0.212969	107.099226
5339.000000	0.175159	0.161285	106.391239
5341.000000	0.177359	0.176122	84.694018
5343.000000	0.176971	0.171039	116.095091
5345.000000	0.153516	0.147665	180.061987
5347.000000	0.183123	0.193237	145.025622
5349.000000	0.193937	0.182532	98.367487
5351.000000	0.188805	0.183330	192.898079
5353.000000	0.185071	0.173475	185.442588
5355.000000	0.189714	0.177692	109.251203
5357.000000	0.199865	0.210581	140.655643
5359.000000	0.193598	0.191022	170.126876
5361.000000	0.198596	0.207738	126.264718
5363.000000	0.215793	0.219371	66.730895
5365.000000	0.221311	0.209558	123.444016
5367.000000	0.212580	0.214337	173.875407
5369.000000	0.182320	0.187900	114.238193
5371.000000	0.197445	0.206706	90.292568
5373.000000	0.212617	0.201590	149.686060
5375.000000	0.212909	0.212556	146.075914
5377.000000	0.211815	0.214236	79.309322
5379.000000	0.203731	0.203324	113.279821
5381.000000	0.246321	0.228696	135.204777
5383.000000	0.243481	0.250887	99.202420
5385.000000	0.215149	0.210599	59.269777
5387.000000	0.223670	0.209738	95.287995
5389.000000	0.216299	0.223067	86.618637
5391.000000	0.215310	0.205293	36.413535
5393.000000	0.191135	0.175131	37.471477
5395.000000	0.209132	0.206741	59.795189
5397.000000	0.211688	0.207911	33.800203
5399.000000	0.221490	0.226356	35.788240
5401.000000	0.230735	0.217363	47.665169
5403.000000	0.223214	0.241062	62.017761
5405.000000	0.214375	0.211316	47.811411
5407.000000	0.194917	0.174788	48.421583
5409.000000	0.216466	0.206684	59.019776
5411.000000	0.179089	0.188736	60.648933
5413.000000	0.197610	0.202128	32.395270
5415.000000	0.162852	0.164039	59.599229
5417.000000	0.182721	0.158190	70.375120
5419.000000	0.175588	0.171602	41.671460
5421.000000	0.178661	0.177634	37.411138
5423.000000	0.155143	0.143373	56.101026
5425.000000	0.181926	0.170556	41.228680
5427.000000	0.160805	0.167293	18.807222
5429.000000	0.154937	0.154644	32.563589
5431.000000	0.162750	0.146631	43.239226
5433.000000	0.152094	0.138677	33.906415
5435.000000	0.179764	0.171687	19.238815
5437.000000	0.159117	0.146179	40.927500
5439.000000	0.173969	0.166387	35.102098
5441.000000	0.165348	0.154339	17.602655
5443.000000	0.163089	0.157234	22.162659
5445.000000	0.161104	0.172619	27.426550
5447.000000	0.164611	0.163346	19.589856
5449.000000	0.170312	0.214689	13.852615
5451.000000	0.140820	0.147641	13.591775
5453.000000	0.160149	0.151170	10.346800
5455.000000	0.161243	0.168220	9.713633
5457.000000	0.148825	0.128361	13.885624
5459.000000	0.171292	0.153824	17.521017
5461.000000	0.165770	0.158365	14.457835
5463.000000	0.153204	0.159591	7.150301
5465.000000	0.176765	0.181122	10.911188
5467.000000	0.142712	0.131724	22.669709
5469.000000	0.180229	0.166565	12.715981
5471.000000	0.164965	0.178392	9.707517
5473.000000	0.174773	0.173432	19.372929
5475.000000	0.158265	0.161432	13.708516
5477.000000	0.163591	0.144642	8.262740
5479.000000	0.172639	0.163207	14.011063
5481.000000	0.169099	0.164379	14.606830
5483.000000	0.183967	0.180037	7.949798
5485.000000	0.169427	0.157773	5.362491
5487.000000	0.183283	0.172529	17.501097
5489.000000	0.183836	0.173616	10.874052
5491.000000	0.179128	0.190584	2.690171
5493.000000	0.202280	0.207977	4.063642
5495.000000	0.215557	0.200385	4.549353
5497.000000	0.197405	0.209514	0.920728
5499.000000	0.203973	0.215888	0.680307
5501.000000	0.221424	0.203364	2.332273
