

# Same as before, 2MHz steps
# Scan parameters: power 19.000000 dBm, bandwidth 1.500000 Hz
# Frequency [MHz]	avg noise	std noise	peak value
3851.000000	2.033747	2.043153	530.201564
3853.000000	1.856156	1.902402	618.536149
3855.000000	1.965526	1.844232	540.835826
3857.000000	1.915056	1.896994	491.204240
3859.000000	1.819094	1.727964	911.931401
3861.000000	1.826519	1.840717	768.203635
3863.000000	1.676730	1.561008	437.521641
3865.000000	1.810175	1.768904	929.584797
3867.000000	1.897625	2.109088	918.481437
3869.000000	2.063317	2.048696	715.493504
3871.000000	2.079844	2.014698	587.164553
3873.000000	1.812720	1.720124	806.122059
3875.000000	1.929980	1.756916	810.681839
3877.000000	2.013331	2.275339	502.271570
3879.000000	2.090697	2.105406	827.040705
3881.000000	2.190273	2.374318	1122.326822
3883.000000	1.865458	1.555423	1076.998854
3885.000000	2.274312	2.136235	586.855536
3887.000000	2.322194	2.406774	1090.380135
3889.000000	1.859431	2.008489	1104.458435
3891.000000	2.082887	2.015033	702.647932
3893.000000	2.352126	2.287628	992.083545
3895.000000	2.338737	2.032776	1476.280960
3897.000000	2.150367	1.921348	1248.618650
3899.000000	2.151510	2.110101	626.805940
3901.000000	2.035377	2.090856	1201.279225
3903.000000	2.311622	2.579306	1411.685635
3905.000000	2.268715	2.369425	848.557608
3907.000000	2.664973	2.604986	898.757887
3909.000000	2.204125	2.153547	1309.718946
3911.000000	2.502876	2.460979	940.708884
3913.000000	2.539787	2.589693	578.024080
3915.000000	2.769941	3.002195	950.879682
3917.000000	2.611997	2.035323	1255.945497
3919.000000	2.532182	2.576517	953.789950
3921.000000	2.640017	2.509082	460.776623
3923.000000	2.613022	3.231122	1366.003350
3925.000000	2.776298	3.206871	863.421937
3927.000000	2.907691	2.713775	404.200012
3929.000000	2.697728	2.654090	536.901802
3931.000000	2.524022	2.418549	657.379720
3933.000000	3.001979	3.035913	447.686062
3935.000000	2.774210	2.651839	223.607502
3937.000000	3.055399	2.840024	265.100464
3939.000000	3.156416	3.229322	182.935786
3941.000000	3.499345	3.738045	123.745889
3943.000000	2.728844	2.685290	217.669091
3945.000000	2.500229	2.332142	417.573716
3947.000000	2.963431	2.947906	491.169520
3949.000000	2.820940	2.825836	339.261200
3951.000000	2.876369	3.182731	931.641925
3953.000000	2.653659	2.729526	1398.565290
3955.000000	2.894227	3.152492	837.015314
3957.000000	2.753944	2.774461	928.449550
3959.000000	2.700606	2.620007	1379.132611
3961.000000	2.339632	2.383816	1037.379260
3963.000000	2.543892	2.417948	578.080555
3965.000000	2.409642	2.388485	1294.527632
3967.000000	2.367716	2.296998	1428.559810
3969.000000	2.437475	2.293930	1057.109459
3971.000000	2.417164	2.392594	807.284734
3973.000000	2.572701	2.720503	1447.399279
3975.000000	2.357616	2.467473	1377.452012
3977.000000	2.135040	2.232927	626.091804
3979.000000	2.569443	2.468732	1061.932965
3981.000000	2.220636	2.301846	1404.125333
3983.000000	2.331841	2.249138	1033.762805
3985.000000	2.108949	1.965610	944.730786
3987.000000	2.161252	2.226488	1971.798566
3989.000000	1.918247	1.873822	2302.402014
3991.000000	2.036107	2.151401	1588.250658
3993.000000	2.280846	2.407268	1988.237944
3995.000000	1.865294	1.960439	3616.718269
3997.000000	1.952302	1.951122	3170.789912
3999.000000	1.756985	1.554615	1527.901289
4001.000000	1.964959	2.073413	3673.208773
4003.000000	1.876694	1.948520	4207.473800
4005.000000	1.942929	2.045758	2841.160510
4007.000000	1.921024	1.806655	2853.888450
4009.000000	1.829512	1.736296	4049.600110
4011.000000	1.778381	1.750580	2999.770157
4013.000000	1.843146	1.868435	1253.355406
4015.000000	1.699388	1.775871	2343.779652
4017.000000	1.611667	1.445412	2619.641641
4019.000000	1.709633	1.614050	1733.743340
4021.000000	1.690949	1.699650	1252.498357
4023.000000	1.754425	1.608235	1797.004072
4025.000000	1.562099	1.447457	1943.750448
4027.000000	1.664195	1.834243	1221.569292
4029.000000	1.505046	1.346775	1730.618439
4031.000000	1.670933	1.855085	2447.456194
4033.000000	1.458496	1.283275	2072.747799
4035.000000	1.400455	1.358371	1227.480814
4037.000000	1.671465	1.669666	1867.946525
4039.000000	1.410329	1.383335	1599.180905
4041.000000	1.330449	1.248902	975.689376
4043.000000	1.357614	1.175537	1070.208059
4045.000000	1.384939	1.397910	1320.772841
4047.000000	1.461631	1.540940	978.509668
4049.000000	1.393374	1.275780	455.441028
4051.000000	1.327926	1.303741	1026.629422
4053.000000	1.310702	1.295033	1005.342259
4055.000000	1.357070	1.390138	572.193267
4057.000000	1.248717	1.173751	485.584364
4059.000000	1.149717	1.017369	614.674272
4061.000000	1.125327	1.151804	497.883009
4063.000000	1.367853	1.217035	314.498585
4065.000000	1.299274	1.405328	512.468225
4067.000000	1.038722	1.113125	516.518009
4069.000000	1.230820	1.242215	285.918767
4071.000000	1.017533	0.981239	155.141603
4073.000000	1.147837	1.088956	221.579660
4075.000000	1.256268	1.290683	267.846982
4077.000000	1.153471	1.154076	153.772712
4079.000000	1.187134	1.244296	322.242250
4081.000000	1.013804	0.974625	391.564746
4083.000000	1.036697	0.999546	374.673313
4085.000000	1.040979	1.011380	321.251230
4087.000000	1.184237	1.186634	548.819649
4089.000000	1.100183	1.015545	527.347224
4091.000000	1.123737	1.131719	358.786499
4093.000000	0.995603	0.911441	562.753638
4095.000000	0.931811	0.952610	891.308692
4097.000000	0.986836	0.927216	897.092145
4099.000000	0.934695	0.858881	604.674698
4101.000000	1.035046	1.033163	1200.559846
4103.000000	0.969670	0.915586	1345.073812
4105.000000	0.996062	0.870591	876.185775
4107.000000	1.012110	0.983819	788.492142
4109.000000	1.023707	0.964293	1044.453915
4111.000000	0.917887	0.864658	838.004304
4113.000000	1.118024	1.108600	373.734968
4115.000000	0.983138	0.964798	775.154688
4117.000000	1.078225	1.146811	970.596668
4119.000000	1.048626	1.021454	625.286192
4121.000000	0.972733	0.952836	554.576166
4123.000000	0.917252	0.977162	647.212843
4125.000000	1.143873	1.237535	691.077274
4127.000000	1.065639	0.956561	350.408869
4129.000000	0.985864	0.978027	630.020994
4131.000000	1.098675	1.121778	781.281963
4133.000000	0.990663	1.047516	557.839746
4135.000000	0.999795	0.956260	384.989118
4137.000000	1.071170	1.140682	643.174375
4139.000000	1.116438	1.110677	705.918151
4141.000000	0.999924	0.983031	453.456453
4143.000000	1.195424	1.211655	500.452055
4145.000000	0.942618	0.888548	577.393705
4147.000000	1.025077	1.171485	396.005696
4149.000000	0.981203	0.884109	181.684692
4151.000000	1.092059	1.126712	301.337095
4153.000000	1.093389	1.106783	298.812322
4155.000000	0.951306	0.945639	154.840595
4157.000000	1.024417	0.966697	180.004018
4159.000000	0.942634	1.038267	194.611582
4161.000000	1.063046	1.083801	209.117347
4163.000000	1.142037	1.105251	61.926786
4165.000000	1.106741	1.092719	130.030985
4167.000000	1.162429	1.344270	128.415235
4169.000000	0.877442	0.927355	74.760417
4171.000000	0.955040	0.859982	38.148715
4173.000000	1.032536	0.963104	62.222375
4175.000000	0.975891	0.939560	55.569446
4177.000000	0.986800	1.041290	35.168312
4179.000000	1.000555	0.974091	42.568197
4181.000000	0.964578	0.970660	29.443276
4183.000000	0.850131	0.902446	30.611334
4185.000000	0.990083	0.966975	28.221955
4187.000000	0.968535	0.977468	35.181984
4189.000000	0.934763	0.964202	45.214357
4191.000000	0.831571	0.788754	35.610670
4193.000000	0.809979	0.892917	27.076720
4195.000000	0.883174	0.892368	48.953225
4197.000000	0.875701	0.783500	53.464566
4199.000000	0.907236	0.915416	18.912231
4201.000000	0.990511	1.034675	51.785245
4203.000000	0.908908	0.932901	38.833002
4205.000000	0.810089	0.769423	26.107528
4207.000000	0.861660	0.831965	49.541084
4209.000000	0.786039	0.858082	77.046157
4211.000000	0.928911	0.832751	78.254125
4213.000000	0.923926	0.945574	44.659858
4215.000000	0.805824	0.893826	55.725636
4217.000000	1.089897	1.067186	55.673740
4219.000000	0.926729	0.991232	50.437436
4221.000000	0.929390	0.824578	44.954648
4223.000000	0.853134	0.905969	53.734266
4225.000000	0.860733	0.893240	78.639133
4227.000000	0.885497	0.890500	49.129412
4229.000000	0.856067	0.868365	72.123931
4231.000000	0.903602	0.921169	80.877951
4233.000000	1.011754	1.063849	71.249492
4235.000000	0.878894	0.884590	66.520441
4237.000000	0.812036	0.791553	115.086990
4239.000000	0.870375	0.838853	89.184133
4241.000000	0.844102	0.845213	47.537691
4243.000000	0.779734	0.791568	65.720292
4245.000000	0.911779	0.970355	77.251108
4247.000000	0.917108	0.941758	49.677199
4249.000000	0.952570	0.878552	34.835994
4251.000000	0.857584	0.833741	71.548426
4253.000000	0.894541	0.798079	75.654906
4255.000000	0.936722	0.935419	69.860542
4257.000000	0.880253	0.809881	64.284287
4259.000000	0.837148	0.809117	83.695602
4261.000000	0.886208	0.817936	88.572184
4263.000000	0.958942	0.974634	29.730284
4265.000000	0.833909	0.776965	72.722876
4267.000000	0.803882	0.783924	59.282890
4269.000000	0.923514	0.960905	36.836827
4271.000000	0.759229	0.801791	28.758332
4273.000000	0.889062	0.812412	44.224601
4275.000000	0.773016	0.756494	58.742178
4277.000000	0.874572	0.916852	43.499270
4279.000000	0.838458	0.850525	59.180374
4281.000000	0.719182	0.685400	63.767561
4283.000000	0.653979	0.725031	70.035314
4285.000000	0.692224	0.687122	25.385645
4287.000000	0.713534	0.672314	49.788420
4289.000000	0.765746	0.695288	39.040605
4291.000000	0.776508	0.751097	23.787761
4293.000000	0.795570	0.704801	30.276833
4295.000000	0.704075	0.696983	63.714010
4297.000000	0.724123	0.691039	80.748576
4299.000000	0.735214	0.664198	38.884138
4301.000000	0.646365	0.654463	110.244319
4303.000000	0.743196	0.809341	135.430900
4305.000000	0.734871	0.755426	111.243804
4307.000000	0.727404	0.716874	88.370127
4309.000000	0.705307	0.655219	146.539597
4311.000000	0.693202	0.624698	146.210543
4313.000000	0.669631	0.610854	101.739009
4315.000000	0.653552	0.641184	181.905738
4317.000000	0.647007	0.640068	273.770932
4319.000000	0.767224	0.673823	145.039638
4321.000000	0.702739	0.738001	142.778901
4323.000000	0.781761	0.763363	315.638163
4325.000000	0.677121	0.673881	319.594783
4327.000000	0.734630	0.713279	208.358017
4329.000000	0.802339	0.761807	279.309407
4331.000000	0.724534	0.748725	435.115800
4333.000000	0.747139	0.770002	365.353528
4335.000000	0.781241	0.793875	259.185226
4337.000000	0.695522	0.718484	441.192618
4339.000000	0.687245	0.728989	466.853512
4341.000000	0.735117	0.741586	287.581580
4343.000000	0.695845	0.644466	336.540715
4345.000000	0.653279	0.602679	524.729307
4347.000000	0.681179	0.645866	371.637317
4349.000000	0.614297	0.580857	192.743730
4351.000000	0.650250	0.671073	358.749406
4353.000000	0.613672	0.539644	353.461683
4355.000000	0.625216	0.673847	227.155602
4357.000000	0.586697	0.558747	212.164988
4359.000000	0.543581	0.529437	253.052958
4361.000000	0.548309	0.587608	231.250000
4363.000000	0.539601	0.507196	111.068732
4365.000000	0.542878	0.503462	199.997894
4367.000000	0.602363	0.581917	271.919622
4369.000000	0.482709	0.449204	185.617679
4371.000000	0.516337	0.536230	163.282682
4373.000000	0.531518	0.545167	240.406931
4375.000000	0.474652	0.492582	178.335750
4377.000000	0.548278	0.540705	93.443496
4379.000000	0.485524	0.414651	116.216409
4381.000000	0.536548	0.536447	128.147946
4383.000000	0.480728	0.485118	74.034999
4385.000000	0.500019	0.467843	58.431784
4387.000000	0.548920	0.540020	99.792256
4389.000000	0.474016	0.482922	123.918190
4391.000000	0.439161	0.394657	89.996333
4393.000000	0.444168	0.420979	92.547328
4395.000000	0.555814	0.625748	142.235486
4397.000000	0.489407	0.520059	131.141595
4399.000000	0.515478	0.475707	72.103332
4401.000000	0.449286	0.474413	207.130884
4403.000000	0.448594	0.436287	269.756933
4405.000000	0.456900	0.443221	173.191897
4407.000000	0.450450	0.443511	169.480988
4409.000000	0.436366	0.416971	207.587282
4411.000000	0.435425	0.425951	200.802528
4413.000000	0.521773	0.518705	99.250775
4415.000000	0.471544	0.404745	194.947559
4417.000000	0.455041	0.418597	236.814104
4419.000000	0.454541	0.413256	148.514251
4421.000000	0.472428	0.511210	113.251973
4423.000000	0.426706	0.393526	158.619696
4425.000000	0.470336	0.484192	164.690693
4427.000000	0.451817	0.473675	89.632810
4429.000000	0.487487	0.459715	107.183172
4431.000000	0.460758	0.458147	122.759577
4433.000000	0.428590	0.413885	97.631898
4435.000000	0.425321	0.411603	59.300274
4437.000000	0.461351	0.482709	126.170510
4439.000000	0.441094	0.428631	138.105092
4441.000000	0.395916	0.414987	78.019241
4443.000000	0.443971	0.453212	131.900204
4445.000000	0.455728	0.446953	204.832172
4447.000000	0.427502	0.397955	132.241781
4449.000000	0.416619	0.409816	77.427969
4451.000000	0.385084	0.378547	134.510768
4453.000000	0.417058	0.380176	139.146914
4455.000000	0.476287	0.479650	118.885015
4457.000000	0.395594	0.406082	101.138762
4459.000000	0.433607	0.471035	145.781249
4461.000000	0.407065	0.478860	102.151550
4463.000000	0.365722	0.402426	55.022516
4465.000000	0.396508	0.408035	129.934168
4467.000000	0.437990	0.434256	167.263510
4469.000000	0.412146	0.416344	143.462742
4471.000000	0.368571	0.356903	111.211574
4473.000000	0.464555	0.424835	143.233274
4475.000000	0.433038	0.429015	127.625563
4477.000000	0.414541	0.436273	48.426737
4479.000000	0.422597	0.406098	103.807139
4481.000000	0.438490	0.415226	97.326989
4483.000000	0.404508	0.445030	71.919295
4485.000000	0.365425	0.314460	58.427440
4487.000000	0.409852	0.416833	111.578794
4489.000000	0.431954	0.395854	96.279637
4491.000000	0.420039	0.436536	56.733341
4493.000000	0.458144	0.439152	64.421897
4495.000000	0.458636	0.416668	77.764431
4497.000000	0.421717	0.412397	62.230875
4499.000000	0.442595	0.419741	21.977371
4501.000000	0.477014	0.464224	60.912900
4503.000000	0.424325	0.419547	48.966405
4505.000000	0.498387	0.413662	31.265540
4507.000000	0.530290	0.565809	43.820858
4509.000000	0.511622	0.500245	85.641656
4511.000000	0.471552	0.512434	77.143968
4513.000000	0.498519	0.480351	57.700494
4515.000000	0.469033	0.495204	102.540313
4517.000000	0.543013	0.556681	151.175879
4519.000000	0.562014	0.563444	102.776179
4521.000000	0.470031	0.440903	83.714131
4523.000000	0.483168	0.483895	152.091978
4525.000000	0.528059	0.515666	151.236600
4527.000000	0.593260	0.555362	112.625047
4529.000000	0.528919	0.531256	164.485635
4531.000000	0.508498	0.502949	179.067741
4533.000000	0.509826	0.494272	157.153046
4535.000000	0.551815	0.583880	75.596579
4537.000000	0.493066	0.450451	137.579150
4539.000000	0.502707	0.494493	108.786797
4541.000000	0.529986	0.527890	53.899114
4543.000000	0.529777	0.516418	37.101375
4545.000000	0.511874	0.486720	43.074244
4547.000000	0.542122	0.507143	53.042705
4549.000000	0.600616	0.708078	23.359137
4551.000000	0.554521	0.577020	71.601159
4553.000000	0.465197	0.445560	61.419723
4555.000000	0.525159	0.496387	33.609364
4557.000000	0.490779	0.545419	18.350392
4559.000000	0.547026	0.535922	24.680190
4561.000000	0.557156	0.557541	18.589859
4563.000000	0.550686	0.552237	8.600923
4565.000000	0.578122	0.553586	11.726289
4567.000000	0.561032	0.549813	20.930329
4569.000000	0.499116	0.681298	14.262889
4571.000000	0.503080	0.496414	20.812177
4573.000000	0.465712	0.491152	36.794430
4575.000000	0.494721	0.586052	27.465529
4577.000000	0.479686	0.498892	21.948008
4579.000000	0.543385	0.534147	14.839598
4581.000000	0.636961	0.598542	6.672601
4583.000000	0.513863	0.547931	2.646479
4585.000000	0.603984	0.517790	2.616167
4587.000000	0.556788	0.557267	8.710450
4589.000000	0.507738	0.495219	21.244588
4591.000000	0.468988	0.473914	17.565379
4593.000000	0.495609	0.468545	36.599897
4595.000000	0.533692	0.487604	40.775990
4597.000000	0.463608	0.463476	25.010693
4599.000000	0.443266	0.456160	17.502627
4601.000000	0.498177	0.504799	33.853370
4603.000000	0.496086	0.486111	53.282375
4605.000000	0.494507	0.459373	40.325126
4607.000000	0.511149	0.443671	63.248758
4609.000000	0.518833	0.598819	90.830385
4611.000000	0.471296	0.476580	62.788640
4613.000000	0.424136	0.423238	28.732946
4615.000000	0.471625	0.454992	40.705293
4617.000000	0.476295	0.451130	62.395661
4619.000000	0.477166	0.495745	50.905382
4621.000000	0.487528	0.443088	29.348212
4623.000000	0.477139	0.426537	108.577032
4625.000000	0.512715	0.559155	124.490383
4627.000000	0.414277	0.395559	88.316996
4629.000000	0.403541	0.405631	127.044181
4631.000000	0.460966	0.482750	192.811545
4633.000000	0.517535	0.459345	166.382081
4635.000000	0.517056	0.441289	97.505024
4637.000000	0.499426	0.516293	112.749886
4639.000000	0.447423	0.469173	65.092514
4641.000000	0.434018	0.451810	41.131854
4643.000000	0.508821	0.496157	46.955621
4645.000000	0.477514	0.518541	58.751683
4647.000000	0.453783	0.470321	34.337921
4649.000000	0.398343	0.362685	14.496276
4651.000000	0.439776	0.393246	22.409075
4653.000000	0.472480	0.477346	23.941152
4655.000000	0.437842	0.426163	19.581953
4657.000000	0.432017	0.413969	20.815847
4659.000000	0.419908	0.437068	14.273940
4661.000000	0.447989	0.420101	11.405307
4663.000000	0.477054	0.476583	12.056434
4665.000000	0.483160	0.439631	22.832954
4667.000000	0.555467	0.572356	33.257230
4669.000000	0.512616	0.495933	31.314682
4671.000000	0.483961	0.492610	22.909606
4673.000000	0.471652	0.493520	47.832199
4675.000000	0.534165	0.540378	67.887406
4677.000000	0.480417	0.526003	40.967873
4679.000000	0.524108	0.528995	55.890933
4681.000000	0.506568	0.459311	82.666623
4683.000000	0.536572	0.490673	65.567051
4685.000000	0.490669	0.477334	73.087362
4687.000000	0.456998	0.500732	104.143834
4689.000000	0.571159	0.572316	59.811152
4691.000000	0.532347	0.531327	49.618793
4693.000000	0.481685	0.498749	51.620768
4695.000000	0.543009	0.538261	55.318954
4697.000000	0.453426	0.452091	36.287996
4699.000000	0.492050	0.496141	15.910017
4701.000000	0.544529	0.524638	35.865456
4703.000000	0.507662	0.494875	50.384742
4705.000000	0.512533	0.467875	40.479546
4707.000000	0.496810	0.565779	51.022820
4709.000000	0.427880	0.408809	52.253786
4711.000000	0.485979	0.474718	57.432215
4713.000000	0.549381	0.563859	41.534679
4715.000000	0.521030	0.511603	68.721785
4717.000000	0.476692	0.450593	98.195774
4719.000000	0.535054	0.536228	66.524242
4721.000000	0.479120	0.528770	38.531096
4723.000000	0.473246	0.445091	67.304213
4725.000000	0.447929	0.493305	58.180426
4727.000000	0.473403	0.484372	15.436355
4729.000000	0.464633	0.445290	14.088871
4731.000000	0.460465	0.455042	12.416576
4733.000000	0.433882	0.417044	3.700090
4735.000000	0.509546	0.490387	2.230452
4737.000000	0.468221	0.468333	2.151440
4739.000000	0.435125	0.406801	5.664594
4741.000000	0.495821	0.521412	9.004148
4743.000000	0.438811	0.445701	29.633119
4745.000000	0.432643	0.430789	86.787730
4747.000000	0.485155	0.441285	94.176981
4749.000000	0.452547	0.454162	63.578558
4751.000000	0.504392	0.514672	131.362420
4753.000000	0.461958	0.534221	167.171156
4755.000000	0.448493	0.486354	139.878780
4757.000000	0.428647	0.463758	162.661305
4759.000000	0.412499	0.410600	236.099172
4761.000000	0.406321	0.443325	257.932800
4763.000000	0.400420	0.365311	172.479279
4765.000000	0.386351	0.412598	400.382296
4767.000000	0.418544	0.404379	587.895277
4769.000000	0.413134	0.370840	415.497255
4771.000000	0.422839	0.370687	368.318184
4773.000000	0.425854	0.417324	578.611580
4775.000000	0.404857	0.366148	551.724765
4777.000000	0.405360	0.392842	370.427112
4779.000000	0.371909	0.360589	621.808846
4781.000000	0.422588	0.445699	917.045767
4783.000000	0.420113	0.399330	711.502112
4785.000000	0.371744	0.349902	514.383019
4787.000000	0.412550	0.392551	936.117234
4789.000000	0.426657	0.425357	1044.127997
4791.000000	0.389589	0.367437	615.606993
4793.000000	0.405412	0.405501	781.969719
4795.000000	0.391341	0.371954	1079.143357
4797.000000	0.425112	0.419431	783.914232
4799.000000	0.401382	0.440220	372.795700
4801.000000	0.410939	0.440390	806.414850
4803.000000	0.395119	0.409987	917.811769
4805.000000	0.377876	0.418374	642.329305
4807.000000	0.401973	0.383820	723.890982
4809.000000	0.388282	0.385269	1140.442885
4811.000000	0.437224	0.419569	943.253718
4813.000000	0.422986	0.457413	479.793653
4815.000000	0.358147	0.314908	867.621183
4817.000000	0.431120	0.428460	1137.192392
4819.000000	0.397858	0.401418	856.018494
4821.000000	0.396908	0.411797	715.077318
4823.000000	0.451157	0.400283	1336.633975
4825.000000	0.395697	0.429904	1214.545982
4827.000000	0.429856	0.403520	655.327763
4829.000000	0.407268	0.401351	1186.670832
4831.000000	0.391576	0.408217	1496.775918
4833.000000	0.422304	0.471116	1325.094532
4835.000000	0.454174	0.480543	886.971358
4837.000000	0.400502	0.420011	1529.209851
4839.000000	0.350653	0.355423	1573.607961
4841.000000	0.401276	0.408880	815.897306
4843.000000	0.414187	0.433538	922.700280
4845.000000	0.384600	0.365821	1174.217823
4847.000000	0.365830	0.376524	941.448659
4849.000000	0.398045	0.384343	472.307944
4851.000000	0.422610	0.407310	828.916058
4853.000000	0.313793	0.313618	819.976684
4855.000000	0.318369	0.329470	484.073707
4857.000000	0.370128	0.386934	461.802878
4859.000000	0.393165	0.387012	603.968599
4861.000000	0.335054	0.315162	497.989838
4863.000000	0.381568	0.420162	241.183369
4865.000000	0.375601	0.365649	456.774759
4867.000000	0.377582	0.397244	617.692511
4869.000000	0.368484	0.392119	410.934717
4871.000000	0.364649	0.333812	334.078312
4873.000000	0.388036	0.363337	499.002249
4875.000000	0.373496	0.348011	388.577036
4877.000000	0.325208	0.330299	222.414721
4879.000000	0.345030	0.356669	283.037392
4881.000000	0.336785	0.331409	386.692698
4883.000000	0.324636	0.298898	297.058396
4885.000000	0.284983	0.296034	149.468761
4887.000000	0.307466	0.322438	253.287377
4889.000000	0.325101	0.353995	282.820397
4891.000000	0.351741	0.330267	191.192057
4893.000000	0.279413	0.299300	274.054957
4895.000000	0.348532	0.301852	428.814521
4897.000000	0.299483	0.295778	357.329944
4899.000000	0.348811	0.348326	169.622973
4901.000000	0.335554	0.316602	342.165687
4903.000000	0.354337	0.303511	326.265393
4905.000000	0.331232	0.309930	221.531118
4907.000000	0.336382	0.286775	213.795008
4909.000000	0.313252	0.294815	315.189038
4911.000000	0.307313	0.327070	283.002833
4913.000000	0.377951	0.352985	143.792741
4915.000000	0.335995	0.331851	299.956878
4917.000000	0.349734	0.327985	390.598343
4919.000000	0.361942	0.337005	272.822441
4921.000000	0.362733	0.355467	227.206616
4923.000000	0.393924	0.393836	359.025255
4925.000000	0.326554	0.323494	327.945093
4927.000000	0.391676	0.423205	179.156879
4929.000000	0.364872	0.335946	300.071574
4931.000000	0.378250	0.380566	404.978552
4933.000000	0.414472	0.403368	313.091952
4935.000000	0.333617	0.356296	208.444241
4937.000000	0.329861	0.350682	395.212898
4939.000000	0.351868	0.319125	412.924667
4941.000000	0.400980	0.434840	251.853157
4943.000000	0.340764	0.392730	339.355909
4945.000000	0.364529	0.324554	472.438290
4947.000000	0.425855	0.422540	335.407371
4949.000000	0.372190	0.356306	162.108666
4951.000000	0.353538	0.368327	381.581801
4953.000000	0.365402	0.329999	415.277640
4955.000000	0.375060	0.359340	337.197708
4957.000000	0.360789	0.367359	423.727586
4959.000000	0.348123	0.361203	667.049039
4961.000000	0.341271	0.316326	616.271641
4963.000000	0.381527	0.390634	293.495462
4965.000000	0.380915	0.393387	580.141909
4967.000000	0.403172	0.366683	675.307765
4969.000000	0.409132	0.394126	476.131493
4971.000000	0.416932	0.411990	325.056284
4973.000000	0.447924	0.434174	558.680903
4975.000000	0.384916	0.394547	473.042527
4977.000000	0.420657	0.407863	273.047318
4979.000000	0.445392	0.409242	402.805582
4981.000000	0.428452	0.386356	468.607595
4983.000000	0.413072	0.346778	382.052166
4985.000000	0.416791	0.407588	260.858669
4987.000000	0.436405	0.402481	509.542418
4989.000000	0.445455	0.450649	524.012742
4991.000000	0.487558	0.471760	276.844741
4993.000000	0.437901	0.378214	328.436530
4995.000000	0.380080	0.351818	440.095119
4997.000000	0.401870	0.427708	325.700345
4999.000000	0.406390	0.403173	179.179282
5001.000000	0.467405	0.482534	283.323878
5003.000000	0.375446	0.373966	208.410394
5005.000000	0.417587	0.423909	132.080496
5007.000000	0.445508	0.431089	159.344931
5009.000000	0.394268	0.397411	196.380586
5011.000000	0.409261	0.412410	209.269667
5013.000000	0.395889	0.389234	102.081435
5015.000000	0.456814	0.479393	193.512426
5017.000000	0.419827	0.383438	206.007790
5019.000000	0.461083	0.455360	112.109293
5021.000000	0.374476	0.369800	84.268365
5023.000000	0.477169	0.542239	158.555773
5025.000000	0.402721	0.359490	146.114480
5027.000000	0.381923	0.386223	120.964242
5029.000000	0.436711	0.424063	176.714999
5031.000000	0.415205	0.410281	286.493289
5033.000000	0.419415	0.396046	222.343216
5035.000000	0.409898	0.364219	124.744940
5037.000000	0.423707	0.409621	249.921443
5039.000000	0.385600	0.343720	192.837324
5041.000000	0.494871	0.488077	117.907880
5043.000000	0.438160	0.408467	139.687579
5045.000000	0.463704	0.428904	175.883460
5047.000000	0.464561	0.441296	143.552225
5049.000000	0.449370	0.492143	99.260939
5051.000000	0.424978	0.475062	215.099427
5053.000000	0.429194	0.397448	227.300931
5055.000000	0.392786	0.350906	171.600396
5057.000000	0.393743	0.396493	226.600235
5059.000000	0.461167	0.487336	305.569022
5061.000000	0.421512	0.367746	275.098061
5063.000000	0.385039	0.403776	131.785696
5065.000000	0.396617	0.418044	191.272945
5067.000000	0.433539	0.380947	147.012313
5069.000000	0.412039	0.399225	86.282903
5071.000000	0.425301	0.453793	97.974611
5073.000000	0.408973	0.418283	181.025744
5075.000000	0.417071	0.409829	162.893074
5077.000000	0.482027	0.512998	93.186987
5079.000000	0.423449	0.437448	142.645155
5081.000000	0.463895	0.404262	164.908703
5083.000000	0.432727	0.469693	129.886211
5085.000000	0.452317	0.413954	103.860748
5087.000000	0.395223	0.353611	147.144933
5089.000000	0.418414	0.425968	109.850188
5091.000000	0.396674	0.375431	42.378173
5093.000000	0.397722	0.382132	38.417979
5095.000000	0.418122	0.406300	68.520578
5097.000000	0.430318	0.407973	71.209372
5099.000000	0.397784	0.397193	56.816896
5101.000000	0.488564	0.502418	115.377078
5103.000000	0.391091	0.359695	144.095504
5105.000000	0.391212	0.392282	101.149083
5107.000000	0.448608	0.432612	110.026532
5109.000000	0.385484	0.375728	188.102505
5111.000000	0.387926	0.365460	165.133327
5113.000000	0.391658	0.352016	66.394384
5115.000000	0.417928	0.398166	79.331190
5117.000000	0.390376	0.404966	60.674222
5119.000000	0.355293	0.329537	33.297748
5121.000000	0.396096	0.368736	41.481056
5123.000000	0.473164	0.513816	93.214237
5125.000000	0.431931	0.410703	122.647415
5127.000000	0.444672	0.460974	60.890389
5129.000000	0.448609	0.410195	110.778740
5131.000000	0.427617	0.404137	159.166559
5133.000000	0.401359	0.421508	122.074153
5135.000000	0.474327	0.538753	64.307595
5137.000000	0.394345	0.407437	84.175622
5139.000000	0.393659	0.397512	92.019559
5141.000000	0.391747	0.364507	54.473210
5143.000000	0.429709	0.419987	62.577987
5145.000000	0.410728	0.391429	63.158920
5147.000000	0.448190	0.479552	52.320066
5149.000000	0.456375	0.415279	23.770857
5151.000000	0.447260	0.421064	110.533206
5153.000000	0.439677	0.419992	159.296275
5155.000000	0.444460	0.412917	69.681225
5157.000000	0.425234	0.429549	89.264265
5159.000000	0.447117	0.516427	122.014328
5161.000000	0.446148	0.406193	100.311572
5163.000000	0.376227	0.338404	46.375437
5165.000000	0.454571	0.504402	73.175259
5167.000000	0.459820	0.387142	67.637907
5169.000000	0.456310	0.470408	12.463740
5171.000000	0.386977	0.381140	11.387854
5173.000000	0.463037	0.470818	21.532513
5175.000000	0.397617	0.382307	13.592241
5177.000000	0.378472	0.353819	6.845539
5179.000000	0.382854	0.443681	14.099856
5181.000000	0.372330	0.393620	11.771044
5183.000000	0.385662	0.384237	4.568465
5185.000000	0.381986	0.364027	2.290551
5187.000000	0.401290	0.408968	4.685143
5189.000000	0.378057	0.366938	10.376225
5191.000000	0.367401	0.361456	5.503269
5193.000000	0.327441	0.340087	3.776419
5195.000000	0.378746	0.374596	9.709752
5197.000000	0.348280	0.329354	5.483215
5199.000000	0.355690	0.372364	4.006872
5201.000000	0.377194	0.393932	3.942059
5203.000000	0.392474	0.451754	3.023806
5205.000000	0.346076	0.367335	1.509665
5207.000000	0.394170	0.462776	4.923660
5209.000000	0.386767	0.365498	2.803280
5211.000000	0.421823	0.389584	2.521062
5213.000000	0.344256	0.316597	1.903828
5215.000000	0.363430	0.356339	2.118614
5217.000000	0.354968	0.319384	5.750644
5219.000000	0.372252	0.353860	3.662958
5221.000000	0.362038	0.325301	9.064532
5223.000000	0.381288	0.379566	23.418110
5225.000000	0.365454	0.335066	18.938394
5227.000000	0.391557	0.384164	12.146032
5229.000000	0.353557	0.365427	18.721769
5231.000000	0.374181	0.325945	28.148761
5233.000000	0.340918	0.388963	34.968282
5235.000000	0.395564	0.421435	28.821391
5237.000000	0.356973	0.375338	62.557058
5239.000000	0.384300	0.373717	83.643310
5241.000000	0.340209	0.327621	56.353415
5243.000000	0.343838	0.324429	86.069638
5245.000000	0.379815	0.384027	97.590715
5247.000000	0.367789	0.366945	92.658063
5249.000000	0.326772	0.367680	38.085911
5251.000000	0.376564	0.386385	69.103896
5253.000000	0.353322	0.333136	73.194532
5255.000000	0.324766	0.301909	45.055531
5257.000000	0.425277	0.399315	47.930165
5259.000000	0.293986	0.306986	39.479762
5261.000000	0.354063	0.332633	43.665159
5263.000000	0.373006	0.324064	36.738492
5265.000000	0.311573	0.356142	61.182925
5267.000000	0.392655	0.355105	78.092514
5269.000000	0.341787	0.351473	62.024918
5271.000000	0.368238	0.385869	56.412086
5273.000000	0.333731	0.335242	145.051349
5275.000000	0.330893	0.348672	138.939546
5277.000000	0.368442	0.331996	92.358595
5279.000000	0.403771	0.413486	126.414618
5281.000000	0.328072	0.298535	174.521843
5283.000000	0.331753	0.339386	128.476582
5285.000000	0.333386	0.342903	79.327083
5287.000000	0.315585	0.310950	158.824294
5289.000000	0.343897	0.349735	153.114600
5291.000000	0.347632	0.374235	98.427542
5293.000000	0.313216	0.314506	158.295509
5295.000000	0.329064	0.381987	228.857908
5297.000000	0.343508	0.315607	178.068351
5299.000000	0.348667	0.351705	100.272320
5301.000000	0.316494	0.312144	192.096964
5303.000000	0.318741	0.282397	157.531778
5305.000000	0.323985	0.342755	81.737674
5307.000000	0.294445	0.279312	87.184324
5309.000000	0.303921	0.306001	116.708263
5311.000000	0.269395	0.249519	114.272443
5313.000000	0.295615	0.276396	74.223746
5315.000000	0.268411	0.301318	182.564746
5317.000000	0.281108	0.292910	217.503432
5319.000000	0.275605	0.285148	125.527157
5321.000000	0.296523	0.270557	119.107385
5323.000000	0.299818	0.295905	205.421727
5325.000000	0.274927	0.277333	153.313807
5327.000000	0.285007	0.281052	83.022111
5329.000000	0.312411	0.307574	94.975089
5331.000000	0.290115	0.320172	146.522046
5333.000000	0.291007	0.297750	128.346299
5335.000000	0.284652	0.293664	118.161606
5337.000000	0.302527	0.289951	223.599979
5339.000000	0.255289	0.264982	221.223680
5341.000000	0.281698	0.290342	144.589364
5343.000000	0.293100	0.296040	225.475098
5345.000000	0.268690	0.261178	317.505940
5347.000000	0.271428	0.268681	264.885724
5349.000000	0.287346	0.289833	165.183087
5351.000000	0.242209	0.287870	304.525509
5353.000000	0.260846	0.232489	260.460824
5355.000000	0.310489	0.291443	172.883683
5357.000000	0.267281	0.264558	181.353200
5359.000000	0.251958	0.254905	195.204707
5361.000000	0.281482	0.242772	153.223934
5363.000000	0.260533	0.255509	90.046744
5365.000000	0.246579	0.240030	204.055721
5367.000000	0.243187	0.241866	217.455228
5369.000000	0.245127	0.258829	151.078237
5371.000000	0.250307	0.249476	127.636884
5373.000000	0.256279	0.247321	220.183711
5375.000000	0.238757	0.257692	172.775537
5377.000000	0.238049	0.243966	104.133390
5379.000000	0.251153	0.241980	135.279635
5381.000000	0.242226	0.242862	162.675040
5383.000000	0.243220	0.242247	117.902033
5385.000000	0.238211	0.228285	70.269934
5387.000000	0.270609	0.289552	111.740198
5389.000000	0.250050	0.243523	69.850060
5391.000000	0.269026	0.261298	43.653809
5393.000000	0.261524	0.255457	36.528058
5395.000000	0.251578	0.213012	57.608652
5397.000000	0.228663	0.233098	46.338361
5399.000000	0.260558	0.248494	33.823433
5401.000000	0.234013	0.245477	64.740620
5403.000000	0.203430	0.201440	82.342150
5405.000000	0.233404	0.223609	56.714804
5407.000000	0.207700	0.195376	71.639053
5409.000000	0.248428	0.294733	87.732673
5411.000000	0.215497	0.199226	62.013251
5413.000000	0.240906	0.230684	36.392173
5415.000000	0.185722	0.221399	66.635486
5417.000000	0.230681	0.244696	75.446600
5419.000000	0.233840	0.244819	46.350020
5421.000000	0.243315	0.234265	31.034740
5423.000000	0.221808	0.203117	41.526680
5425.000000	0.229781	0.234247	31.348077
5427.000000	0.238492	0.264853	20.938815
5429.000000	0.203101	0.200831	31.047776
5431.000000	0.255599	0.246850	33.094327
5433.000000	0.238146	0.225043	32.328168
5435.000000	0.211876	0.211131	30.213671
5437.000000	0.230258	0.220656	33.268087
5439.000000	0.240062	0.237414	29.213583
5441.000000	0.209489	0.191190	8.878573
5443.000000	0.188696	0.174796	7.685184
5445.000000	0.222403	0.232233	10.276054
5447.000000	0.235459	0.221314	6.534698
5449.000000	0.231217	0.232940	3.004468
5451.000000	0.209758	0.198834	8.066004
5453.000000	0.205713	0.197088	10.311867
5455.000000	0.190522	0.204987	8.460551
5457.000000	0.200104	0.191106	10.347358
5459.000000	0.177623	0.179577	16.772235
5461.000000	0.184774	0.182197	16.279838
5463.000000	0.226353	0.219453	12.269235
5465.000000	0.206920	0.202427	19.541681
5467.000000	0.202113	0.197025	19.243136
5469.000000	0.178116	0.180636	7.366089
5471.000000	0.187891	0.173541	5.863760
5473.000000	0.183401	0.180974	7.183169
5475.000000	0.188472	0.204588	5.041046
5477.000000	0.165482	0.166018	1.375993
5479.000000	0.201323	0.214156	4.742523
5481.000000	0.160880	0.158974	4.602975
5483.000000	0.184181	0.188537	2.006348
5485.000000	0.182221	0.185786	1.331279
5487.000000	0.171732	0.159619	0.824149
5489.000000	0.168594	0.165207	2.216280
5491.000000	0.181991	0.176804	3.252789
5493.000000	0.165394	0.170183	2.379378
5495.000000	0.165673	0.191597	5.955649
5497.000000	0.168430	0.170107	6.608859
5499.000000	0.173791	0.166875	4.066569
5501.000000	0.171406	0.159543	14.084280
