

# Sleep function is implemented
# Scan parameters: power 19.000000 dBm, bandwidth 1.500000 Hz
# Frequency [MHz]	avg noise	std noise	peak value
3851.000000	0.100033	0.101775	209.770701
3852.000000	0.099522	0.098821	125.624109
3853.000000	0.109633	0.112012	257.994386
3854.000000	0.092095	0.100265	248.790597
3855.000000	0.112000	0.114604	209.342625
3856.000000	0.103169	0.108574	356.914293
3857.000000	0.129368	0.143659	253.138131
3858.000000	0.099864	0.097246	316.409178
3859.000000	0.093059	0.094767	452.319778
3860.000000	0.094839	0.089339	230.190991
3861.000000	0.095428	0.097473	395.833043
3862.000000	0.100743	0.093135	463.149658
3863.000000	0.090357	0.079332	212.725871
3864.000000	0.093866	0.089269	455.857112
3865.000000	0.086964	0.097535	366.447000
3866.000000	0.103295	0.108397	243.852734
3867.000000	0.093006	0.102945	424.524315
3868.000000	0.102678	0.091377	314.955725
3869.000000	0.098658	0.107582	285.152283
3870.000000	0.097189	0.093671	383.845623
3871.000000	0.095479	0.095618	230.372205
3872.000000	0.079999	0.072512	302.891017
3873.000000	0.091707	0.100706	379.069942
3874.000000	0.088198	0.088613	165.741068
3875.000000	0.090726	0.092772	369.364685
3876.000000	0.109020	0.101325	393.712133
3877.000000	0.108331	0.101905	226.778492
3878.000000	0.094869	0.088414	450.245355
3879.000000	0.098154	0.096669	376.312947
3880.000000	0.116334	0.107927	321.756662
3881.000000	0.103514	0.118594	509.713611
3882.000000	0.100259	0.112442	377.598257
3883.000000	0.105393	0.115106	457.535719
3884.000000	0.101779	0.094213	600.249520
3885.000000	0.117516	0.112379	355.292050
3886.000000	0.113628	0.114435	572.239522
3887.000000	0.108794	0.122631	626.580584
3888.000000	0.115570	0.118252	286.168487
3889.000000	0.128284	0.133681	686.149752
3890.000000	0.113445	0.103952	624.656260
3891.000000	0.115736	0.116532	426.977878
3892.000000	0.099558	0.094941	813.009303
3893.000000	0.121944	0.113480	584.644531
3894.000000	0.108985	0.106349	581.546877
3895.000000	0.114589	0.103312	851.311752
3896.000000	0.110123	0.106962	519.687820
3897.000000	0.119037	0.117339	757.909487
3898.000000	0.117961	0.109147	822.922813
3899.000000	0.122140	0.111749	374.746530
3900.000000	0.120427	0.116123	778.391863
3901.000000	0.145613	0.129824	771.136332
3902.000000	0.104228	0.109055	422.347392
3903.000000	0.141543	0.154198	776.285381
3904.000000	0.122254	0.111468	627.325528
3905.000000	0.158788	0.161344	536.703937
3906.000000	0.115245	0.110747	861.980685
3907.000000	0.110659	0.115472	538.256169
3908.000000	0.123604	0.120801	661.784120
3909.000000	0.125920	0.113935	816.066464
3910.000000	0.122401	0.120831	426.692841
3911.000000	0.143971	0.152092	644.920499
3912.000000	0.131405	0.127641	679.820350
3913.000000	0.117852	0.113153	306.374130
3914.000000	0.140125	0.141141	657.674308
3915.000000	0.110027	0.123695	575.685344
3916.000000	0.127508	0.135101	405.979864
3917.000000	0.120599	0.127954	721.085797
3918.000000	0.137647	0.134144	571.201749
3919.000000	0.142033	0.129770	508.078191
3920.000000	0.129343	0.111568	751.551712
3921.000000	0.126122	0.138420	416.143364
3922.000000	0.114689	0.113272	573.221746
3923.000000	0.121036	0.115887	651.953854
3924.000000	0.129554	0.129829	254.765683
3925.000000	0.134894	0.138546	561.002561
3926.000000	0.131103	0.122514	520.086218
3927.000000	0.133535	0.128501	297.267331
3928.000000	0.123913	0.126540	558.683696
3929.000000	0.133991	0.138181	431.807284
3930.000000	0.133106	0.123642	362.936362
3931.000000	0.132691	0.139947	476.289325
3932.000000	0.154624	0.143581	304.731739
3933.000000	0.139986	0.148390	314.214228
3934.000000	0.160392	0.178057	386.125220
3935.000000	0.156264	0.166316	177.607670
3936.000000	0.128057	0.114701	249.205256
3937.000000	0.153354	0.142370	233.767897
3938.000000	0.130256	0.153831	80.483968
3939.000000	0.186344	0.181775	169.159069
3940.000000	0.138195	0.130408	123.879448
3941.000000	0.139512	0.135427	90.555607
3942.000000	0.157431	0.156429	147.483486
3943.000000	0.147540	0.154787	118.466321
3944.000000	0.155911	0.170770	104.902418
3945.000000	0.158767	0.167447	182.425354
3946.000000	0.155211	0.148346	134.066549
3947.000000	0.142423	0.126809	193.009834
3948.000000	0.155189	0.154513	253.432270
3949.000000	0.154299	0.157066	131.158630
3950.000000	0.170090	0.156816	317.525918
3951.000000	0.143752	0.135314	316.548594
3952.000000	0.166025	0.160242	184.817672
3953.000000	0.160783	0.168115	395.809045
3954.000000	0.167545	0.180021	363.164466
3955.000000	0.180629	0.183352	312.087702
3956.000000	0.169120	0.162925	475.348405
3957.000000	0.171553	0.197924	299.339046
3958.000000	0.191805	0.222666	374.107430
3959.000000	0.159414	0.165784	410.933199
3960.000000	0.157118	0.136171	245.822534
3961.000000	0.196514	0.185703	313.206123
3962.000000	0.167002	0.167182	356.198640
3963.000000	0.183682	0.184911	145.403329
3964.000000	0.173032	0.182381	360.395919
3965.000000	0.180124	0.167329	311.514682
3966.000000	0.175771	0.179904	229.200584
3967.000000	0.154990	0.143774	446.751113
3968.000000	0.169901	0.191455	325.776484
3969.000000	0.194147	0.182959	351.989762
3970.000000	0.192802	0.197287	498.522758
3971.000000	0.176010	0.184172	296.714563
3972.000000	0.154269	0.131379	398.793293
3973.000000	0.174578	0.171228	495.221355
3974.000000	0.181725	0.187354	213.588846
3975.000000	0.153673	0.144738	395.446831
3976.000000	0.156728	0.154734	367.232785
3977.000000	0.166159	0.160713	194.499894
3978.000000	0.147588	0.142765	332.189719
3979.000000	0.158087	0.173177	258.956254
3980.000000	0.169597	0.160802	204.877729
3981.000000	0.161741	0.176802	291.565865
3982.000000	0.166834	0.164146	214.042624
3983.000000	0.150187	0.160291	267.122803
3984.000000	0.173919	0.175426	369.438948
3985.000000	0.183549	0.158166	236.091349
3986.000000	0.185997	0.187153	455.119789
3987.000000	0.201085	0.195284	530.320394
3988.000000	0.178600	0.175594	293.924686
3989.000000	0.175418	0.155798	679.377006
3990.000000	0.171727	0.163620	662.423983
3991.000000	0.159307	0.153532	497.140897
3992.000000	0.155415	0.154453	975.743571
3993.000000	0.145076	0.153675	735.272182
3994.000000	0.164171	0.174242	773.555964
3995.000000	0.158631	0.154204	1285.515676
3996.000000	0.159162	0.154472	762.289182
3997.000000	0.152643	0.160192	1129.691162
3998.000000	0.155759	0.146032	1414.001236
3999.000000	0.142910	0.143005	620.090767
4000.000000	0.122741	0.121026	1398.278695
4001.000000	0.137522	0.138862	1441.412314
4002.000000	0.146322	0.146097	848.661054
4003.000000	0.130161	0.136385	1614.164290
4004.000000	0.124301	0.134415	1369.770268
4005.000000	0.147508	0.173079	1127.823749
4006.000000	0.123617	0.122345	1729.016403
4007.000000	0.124247	0.127435	1077.812589
4008.000000	0.140120	0.168262	1224.967753
4009.000000	0.118887	0.124070	1375.122619
4010.000000	0.124658	0.140325	682.406790
4011.000000	0.113671	0.106377	991.413301
4012.000000	0.118387	0.116691	1044.562361
4013.000000	0.114024	0.111166	453.695826
4014.000000	0.102432	0.105739	964.577945
4015.000000	0.127524	0.124878	855.561611
4016.000000	0.114873	0.119792	535.042410
4017.000000	0.116797	0.108388	945.564554
4018.000000	0.128791	0.124964	699.670847
4019.000000	0.125180	0.130975	627.905269
4020.000000	0.121945	0.120394	871.020594
4021.000000	0.113943	0.118659	492.491847
4022.000000	0.125481	0.127201	664.431892
4023.000000	0.109099	0.111594	803.695864
4024.000000	0.109808	0.121096	366.038155
4025.000000	0.123049	0.108892	781.103277
4026.000000	0.106602	0.126006	773.462813
4027.000000	0.112739	0.109473	438.647363
4028.000000	0.104901	0.108256	887.978842
4029.000000	0.109672	0.110938	748.772954
4030.000000	0.098011	0.108900	607.640275
4031.000000	0.110789	0.105759	972.398094
4032.000000	0.105389	0.111054	681.664845
4033.000000	0.113023	0.113830	785.297266
4034.000000	0.108849	0.109167	960.923671
4035.000000	0.107468	0.115528	462.709662
4036.000000	0.103049	0.109680	707.515480
4037.000000	0.122331	0.120040	717.749664
4038.000000	0.102511	0.103114	308.940931
4039.000000	0.108188	0.113243	654.538533
4040.000000	0.107988	0.114910	547.542387
4041.000000	0.110930	0.101857	356.244836
4042.000000	0.099852	0.106742	588.336161
4043.000000	0.105320	0.110377	402.082897
4044.000000	0.104710	0.101359	385.938177
4045.000000	0.113818	0.105902	562.650647
4046.000000	0.109110	0.099015	323.473814
4047.000000	0.109307	0.116832	430.669506
4048.000000	0.106888	0.101229	519.943819
4049.000000	0.106922	0.087628	233.596735
4050.000000	0.112920	0.111509	476.958708
4051.000000	0.101483	0.091980	456.591390
4052.000000	0.094059	0.092206	248.735552
4053.000000	0.109142	0.123017	427.949954
4054.000000	0.104220	0.099274	326.191659
4055.000000	0.107115	0.099335	231.468883
4056.000000	0.107603	0.105568	309.780486
4057.000000	0.101925	0.106412	209.240398
4058.000000	0.108592	0.102626	213.691474
4059.000000	0.105897	0.113573	234.433804
4060.000000	0.096988	0.100053	128.826788
4061.000000	0.098159	0.084802	170.400707
4062.000000	0.113828	0.108894	191.859932
4063.000000	0.115550	0.108134	81.879560
4064.000000	0.091302	0.084476	197.073530
4065.000000	0.098589	0.096757	156.623296
4066.000000	0.098378	0.093032	91.653537
4067.000000	0.103443	0.097814	172.014943
4068.000000	0.103286	0.104362	104.781395
4069.000000	0.099920	0.099868	84.247367
4070.000000	0.109835	0.114747	101.503299
4071.000000	0.092860	0.091524	49.571698
4072.000000	0.101611	0.104278	73.732723
4073.000000	0.099758	0.103409	84.330275
4074.000000	0.095895	0.101083	51.364290
4075.000000	0.110112	0.104915	114.099652
4076.000000	0.109542	0.111797	157.273732
4077.000000	0.098191	0.102744	98.379113
4078.000000	0.090453	0.084961	206.698120
4079.000000	0.103200	0.099921	181.415788
4080.000000	0.097377	0.094881	148.955742
4081.000000	0.100681	0.111790	236.006903
4082.000000	0.102704	0.110653	176.651011
4083.000000	0.093844	0.097864	201.299827
4084.000000	0.096516	0.094460	255.913624
4085.000000	0.098335	0.099461	138.567786
4086.000000	0.083429	0.078830	232.769225
4087.000000	0.107968	0.100515	233.550894
4088.000000	0.113296	0.106192	118.336035
4089.000000	0.107451	0.103674	267.580259
4090.000000	0.097429	0.096407	260.052607
4091.000000	0.095074	0.088388	190.095469
4092.000000	0.091069	0.085016	379.349041
4093.000000	0.105925	0.099859	316.298039
4094.000000	0.098408	0.089924	337.023137
4095.000000	0.117932	0.123528	532.828219
4096.000000	0.092542	0.085947	341.137370
4097.000000	0.098097	0.113823	532.310567
4098.000000	0.097703	0.100286	729.827195
4099.000000	0.098440	0.111090	320.350420
4100.000000	0.102883	0.098097	744.580014
4101.000000	0.108905	0.124282	681.226157
4102.000000	0.107252	0.105008	392.857837
4103.000000	0.107239	0.118741	707.907749
4104.000000	0.099218	0.100622	571.424635
4105.000000	0.098521	0.099377	449.312605
4106.000000	0.089870	0.090017	661.901098
4107.000000	0.094687	0.096038	422.297928
4108.000000	0.099208	0.092075	488.467701
4109.000000	0.101265	0.126493	591.527024
4110.000000	0.108028	0.110708	299.252982
4111.000000	0.105451	0.099735	433.109968
4112.000000	0.090795	0.093153	452.997427
4113.000000	0.102837	0.103969	191.924593
4114.000000	0.090406	0.084009	444.240884
4115.000000	0.088740	0.095373	390.217665
4116.000000	0.108292	0.107202	273.462993
4117.000000	0.085330	0.093920	454.587307
4118.000000	0.097333	0.108176	313.007987
4119.000000	0.096949	0.102416	287.287584
4120.000000	0.098486	0.109543	397.932589
4121.000000	0.104246	0.111240	218.745569
4122.000000	0.089108	0.072594	316.550461
4123.000000	0.090147	0.091067	382.948817
4124.000000	0.094106	0.100313	174.717757
4125.000000	0.093382	0.092090	357.073536
4126.000000	0.101922	0.107214	347.527554
4127.000000	0.093590	0.092308	196.522042
4128.000000	0.094900	0.087576	376.073317
4129.000000	0.078934	0.072184	265.901923
4130.000000	0.092641	0.099407	237.154523
4131.000000	0.087643	0.088455	329.846505
4132.000000	0.081281	0.079368	213.473990
4133.000000	0.098423	0.086991	258.921678
4134.000000	0.096327	0.094350	328.195449
4135.000000	0.104403	0.115500	181.811534
4136.000000	0.090378	0.085075	304.946421
4137.000000	0.099876	0.097985	319.308633
4138.000000	0.093153	0.089848	153.232937
4139.000000	0.082015	0.075342	313.694066
4140.000000	0.096148	0.087092	286.541979
4141.000000	0.088112	0.099348	187.474007
4142.000000	0.084902	0.079961	321.321155
4143.000000	0.086934	0.080372	218.912464
4144.000000	0.090248	0.098875	200.366132
4145.000000	0.083241	0.089154	262.209310
4146.000000	0.079302	0.075037	142.605484
4147.000000	0.075009	0.078051	166.683316
4148.000000	0.079867	0.089777	170.691446
4149.000000	0.095787	0.086599	63.433633
4150.000000	0.071366	0.068380	120.621074
4151.000000	0.080932	0.078757	100.571920
4152.000000	0.081442	0.081400	60.026994
4153.000000	0.087436	0.086165	108.462529
4154.000000	0.086699	0.093765	99.643971
4155.000000	0.099418	0.090645	80.734153
4156.000000	0.092629	0.086638	126.793962
4157.000000	0.091929	0.086695	82.383362
4158.000000	0.093332	0.091618	92.893408
4159.000000	0.085390	0.083481	119.020246
4160.000000	0.077916	0.084304	51.259437
4161.000000	0.077196	0.076263	88.037458
4162.000000	0.085081	0.095084	90.080557
4163.000000	0.079008	0.078705	37.942606
4164.000000	0.085035	0.080481	79.668383
4165.000000	0.069802	0.060388	59.236699
4166.000000	0.081981	0.077877	37.252129
4167.000000	0.079578	0.078273	59.573559
4168.000000	0.080980	0.075612	36.697489
4169.000000	0.081066	0.079218	32.129356
4170.000000	0.082230	0.094832	38.161745
4171.000000	0.083339	0.079098	17.695235
4172.000000	0.087302	0.078885	24.259195
4173.000000	0.079342	0.074660	26.983409
4174.000000	0.074695	0.072362	9.848429
4175.000000	0.072899	0.073010	20.599494
4176.000000	0.069898	0.077797	21.350271
4177.000000	0.082917	0.088353	10.615075
4178.000000	0.080313	0.080391	18.677503
4179.000000	0.085216	0.088578	14.683982
4180.000000	0.068750	0.061868	14.900656
4181.000000	0.077395	0.077313	21.366780
4182.000000	0.073517	0.082852	15.677036
4183.000000	0.074449	0.073415	17.372684
4184.000000	0.079631	0.079676	16.730241
4185.000000	0.079063	0.072089	6.632992
4186.000000	0.084114	0.088081	12.585213
4187.000000	0.076805	0.076472	15.195523
4188.000000	0.103230	0.104703	9.236552
4189.000000	0.084220	0.075003	18.863638
4190.000000	0.085130	0.094527	18.293272
4191.000000	0.077283	0.080257	13.395952
4192.000000	0.078680	0.078055	22.443598
4193.000000	0.082193	0.071981	17.638002
4194.000000	0.087279	0.083633	17.684468
4195.000000	0.083893	0.084409	19.516473
4196.000000	0.083746	0.088748	9.270991
4197.000000	0.084910	0.093975	17.446894
4198.000000	0.090279	0.099586	16.986860
4199.000000	0.090166	0.078165	10.110253
4200.000000	0.096124	0.091235	18.040953
4201.000000	0.094215	0.099075	18.382738
4202.000000	0.102629	0.105298	11.560028
4203.000000	0.096502	0.096217	20.882202
4204.000000	0.081163	0.079482	19.435521
4205.000000	0.095032	0.087639	16.759879
4206.000000	0.084841	0.084426	22.315914
4207.000000	0.085330	0.082597	18.081541
4208.000000	0.091336	0.097589	22.763709
4209.000000	0.091209	0.097358	26.963239
4210.000000	0.089394	0.088910	14.311021
4211.000000	0.100098	0.093559	22.074121
4212.000000	0.095476	0.096123	20.974274
4213.000000	0.082170	0.076831	11.092280
4214.000000	0.083732	0.079979	17.343298
4215.000000	0.085868	0.081142	19.229061
4216.000000	0.090851	0.088032	9.889977
4217.000000	0.091717	0.087174	17.751482
4218.000000	0.095533	0.078737	15.325040
4219.000000	0.095767	0.102599	13.585675
4220.000000	0.076056	0.069865	26.233082
4221.000000	0.078858	0.077138	12.531936
4222.000000	0.082870	0.075586	20.890090
4223.000000	0.086354	0.080421	27.210914
4224.000000	0.086542	0.086235	12.638285
4225.000000	0.083020	0.075943	23.496331
4226.000000	0.094799	0.086082	22.446815
4227.000000	0.096526	0.085441	12.356909
4228.000000	0.092779	0.091495	26.689595
4229.000000	0.091144	0.095900	20.240227
4230.000000	0.097584	0.103787	18.241722
4231.000000	0.081419	0.086783	24.962264
4232.000000	0.086461	0.072800	22.676483
4233.000000	0.099771	0.098848	21.502216
4234.000000	0.084351	0.079843	34.670217
4235.000000	0.080659	0.084759	20.188864
4236.000000	0.089605	0.088805	33.519931
4237.000000	0.089139	0.084643	31.440891
4238.000000	0.089848	0.101252	18.653200
4239.000000	0.095971	0.092886	36.422255
4240.000000	0.072840	0.072408	27.864011
4241.000000	0.089710	0.093574	17.515164
4242.000000	0.081321	0.085459	29.228233
4243.000000	0.078581	0.085229	20.766911
4244.000000	0.080576	0.098419	17.084325
4245.000000	0.076496	0.074998	19.606523
4246.000000	0.065780	0.062599	14.607290
4247.000000	0.068073	0.068015	17.743131
4248.000000	0.074114	0.068308	26.323366
4249.000000	0.078757	0.080866	8.759964
4250.000000	0.076304	0.086059	25.171383
4251.000000	0.073340	0.073204	23.387686
4252.000000	0.078145	0.082962	11.345703
4253.000000	0.080034	0.080104	21.645617
4254.000000	0.083260	0.087417	18.800208
4255.000000	0.071052	0.076988	15.620535
4256.000000	0.084440	0.072569	26.968105
4257.000000	0.075363	0.072583	20.897949
4258.000000	0.079655	0.075599	28.141342
4259.000000	0.088218	0.084310	27.244518
4260.000000	0.073992	0.079133	14.584608
4261.000000	0.077408	0.075588	17.966297
4262.000000	0.072278	0.068998	18.332459
4263.000000	0.073105	0.075934	10.140447
4264.000000	0.076344	0.077524	18.979517
4265.000000	0.086372	0.097548	20.768156
4266.000000	0.070820	0.078111	11.507945
4267.000000	0.077688	0.074210	21.465791
4268.000000	0.073129	0.070835	13.460738
4269.000000	0.076898	0.069827	10.176758
4270.000000	0.071247	0.086528	12.126630
4271.000000	0.063635	0.063369	6.170923
4272.000000	0.068110	0.064613	12.976130
4273.000000	0.086093	0.082542	15.735006
4274.000000	0.068978	0.067785	10.555939
4275.000000	0.073830	0.070272	20.404975
4276.000000	0.060082	0.061381	22.792940
4277.000000	0.074645	0.081634	14.494729
4278.000000	0.073797	0.083165	24.980748
4279.000000	0.068320	0.062397	19.889546
4280.000000	0.070451	0.067138	16.078102
4281.000000	0.072231	0.069548	20.621812
4282.000000	0.065146	0.058529	13.713530
4283.000000	0.066356	0.068796	15.791702
4284.000000	0.065766	0.061360	19.031959
4285.000000	0.072222	0.074492	9.173528
4286.000000	0.073425	0.067387	14.345574
4287.000000	0.073553	0.070193	16.154246
4288.000000	0.076055	0.072805	7.425419
4289.000000	0.070763	0.066974	13.377623
4290.000000	0.070682	0.069250	13.208035
4291.000000	0.070667	0.060210	8.590588
4292.000000	0.057528	0.054304	18.862148
4293.000000	0.063804	0.057212	18.114462
4294.000000	0.059675	0.059927	16.328840
4295.000000	0.067491	0.068482	28.437418
4296.000000	0.068404	0.063424	15.329161
4297.000000	0.070042	0.071235	23.195956
4298.000000	0.064733	0.061828	34.919424
4299.000000	0.068175	0.067160	15.061693
4300.000000	0.069896	0.074555	36.690916
4301.000000	0.063587	0.067184	39.769128
4302.000000	0.071140	0.065594	24.508061
4303.000000	0.072339	0.071016	44.136329
4304.000000	0.071508	0.079308	41.418811
4305.000000	0.071419	0.074218	32.391607
4306.000000	0.069309	0.070049	52.101340
4307.000000	0.079611	0.075215	39.409671
4308.000000	0.064228	0.062179	37.321039
4309.000000	0.071454	0.069709	52.643938
4310.000000	0.070603	0.076697	31.425899
4311.000000	0.082724	0.083434	49.068395
4312.000000	0.074475	0.068158	56.865180
4313.000000	0.078754	0.077792	30.636098
4314.000000	0.071529	0.072212	69.114292
4315.000000	0.079377	0.078990	65.378486
4316.000000	0.083720	0.086465	48.638143
4317.000000	0.082642	0.074103	90.164029
4318.000000	0.073521	0.077206	66.001910
4319.000000	0.080378	0.092612	72.824060
4320.000000	0.078589	0.080627	96.763700
4321.000000	0.087550	0.077142	57.049659
4322.000000	0.073581	0.069000	92.919040
4323.000000	0.086462	0.078757	125.006176
4324.000000	0.089879	0.084378	54.286962
4325.000000	0.075046	0.076989	110.724376
4326.000000	0.086565	0.082278	113.364163
4327.000000	0.081703	0.088652	62.546958
4328.000000	0.086798	0.079570	137.237008
4329.000000	0.086834	0.094246	119.490250
4330.000000	0.083831	0.077367	106.709928
4331.000000	0.064707	0.063025	167.048209
4332.000000	0.078965	0.067339	130.775197
4333.000000	0.090888	0.087516	154.840081
4334.000000	0.089008	0.104341	206.585837
4335.000000	0.070839	0.085391	104.652651
4336.000000	0.081038	0.081747	160.663026
4337.000000	0.089199	0.089028	196.615348
4338.000000	0.083203	0.087720	82.206017
4339.000000	0.081252	0.093676	190.403609
4340.000000	0.082760	0.082487	164.676463
4341.000000	0.087597	0.079126	120.759959
4342.000000	0.085566	0.085228	207.563025
4343.000000	0.086990	0.083686	138.662121
4344.000000	0.080326	0.083846	136.098771
4345.000000	0.078474	0.075774	186.588055
4346.000000	0.074452	0.078589	110.707101
4347.000000	0.076478	0.074847	152.423237
4348.000000	0.077162	0.080901	169.252134
4349.000000	0.074777	0.095142	70.094516
4350.000000	0.075330	0.075988	147.841792
4351.000000	0.073515	0.075104	132.640930
4352.000000	0.076776	0.076992	84.269225
4353.000000	0.074582	0.077202	153.709819
4354.000000	0.065057	0.063115	114.566815
4355.000000	0.065000	0.063216	86.270402
4356.000000	0.071566	0.074317	124.812320
4357.000000	0.071492	0.065684	79.912929
4358.000000	0.070053	0.070998	83.103397
4359.000000	0.075403	0.074973	108.768255
4360.000000	0.074969	0.072349	55.757976
4361.000000	0.071194	0.069508	81.285799
4362.000000	0.072336	0.069505	87.928085
4363.000000	0.064525	0.067255	39.004615
4364.000000	0.074189	0.071167	81.772849
4365.000000	0.060088	0.058295	75.339745
4366.000000	0.081468	0.080568	54.284266
4367.000000	0.063445	0.065936	84.053809
4368.000000	0.061858	0.059247	58.976197
4369.000000	0.068388	0.060174	57.554768
4370.000000	0.065295	0.071787	78.735384
4371.000000	0.068511	0.067676	45.323636
4372.000000	0.072445	0.067217	68.462989
4373.000000	0.062386	0.053181	71.761012
4374.000000	0.067796	0.071330	29.071490
4375.000000	0.063591	0.054996	59.112813
4376.000000	0.071715	0.075833	55.817780
4377.000000	0.066131	0.061719	23.644578
4378.000000	0.058256	0.054614	50.175835
4379.000000	0.060828	0.057238	35.449096
4380.000000	0.065717	0.070688	24.991373
4381.000000	0.056982	0.053938	35.058999
4382.000000	0.067316	0.064417	21.083812
4383.000000	0.056394	0.052675	18.601617
4384.000000	0.055652	0.058572	25.444551
4385.000000	0.060756	0.058589	18.358598
4386.000000	0.068437	0.070050	24.680127
4387.000000	0.061083	0.064950	30.628776
4388.000000	0.063561	0.069263	12.095477
4389.000000	0.065202	0.079318	33.370277
4390.000000	0.062138	0.065910	36.852700
4391.000000	0.065039	0.057244	17.572973
4392.000000	0.063885	0.066716	40.362235
4393.000000	0.069189	0.070501	26.338682
4394.000000	0.060581	0.057736	27.063924
4395.000000	0.065856	0.067971	41.319971
4396.000000	0.062301	0.064705	27.110890
4397.000000	0.059121	0.058685	39.992040
4398.000000	0.059890	0.055157	54.773388
4399.000000	0.061446	0.068388	28.299581
4400.000000	0.060967	0.055449	67.019305
4401.000000	0.060666	0.065167	67.857241
4402.000000	0.066678	0.061585	41.998307
4403.000000	0.059774	0.059559	85.360457
4404.000000	0.060608	0.067000	72.192753
4405.000000	0.070907	0.064668	60.121922
4406.000000	0.060851	0.059398	84.701383
4407.000000	0.060964	0.058070	53.986625
4408.000000	0.057277	0.056468	61.381920
4409.000000	0.058162	0.049984	77.081128
4410.000000	0.057067	0.066039	40.261701
4411.000000	0.063669	0.059917	68.962865
4412.000000	0.059071	0.055795	79.847490
4413.000000	0.068995	0.064178	34.859964
4414.000000	0.066307	0.068760	80.091149
4415.000000	0.070129	0.073809	67.267664
4416.000000	0.064657	0.073679	48.526012
4417.000000	0.067697	0.072128	85.250994
4418.000000	0.066494	0.071947	57.470734
4419.000000	0.065431	0.063396	50.930563
4420.000000	0.068813	0.071614	74.293467
4421.000000	0.062722	0.060959	42.039688
4422.000000	0.061594	0.057314	49.990980
4423.000000	0.071213	0.069981	57.039811
4424.000000	0.068411	0.066826	23.589521
4425.000000	0.064845	0.067743	43.632077
4426.000000	0.066538	0.065764	43.507370
4427.000000	0.062641	0.060434	27.861368
4428.000000	0.065547	0.069249	48.257435
4429.000000	0.073267	0.082146	37.688715
4430.000000	0.076225	0.070605	34.188536
4431.000000	0.063461	0.057227	52.618008
4432.000000	0.065949	0.062579	35.744441
4433.000000	0.077181	0.069986	44.027233
4434.000000	0.056609	0.056004	49.370892
4435.000000	0.086827	0.091259	27.934797
4436.000000	0.080531	0.084951	40.908470
4437.000000	0.072753	0.067810	48.685163
4438.000000	0.076754	0.077168	23.605612
4439.000000	0.064873	0.059048	60.446118
4440.000000	0.064347	0.070015	52.015719
4441.000000	0.069704	0.067692	39.830755
4442.000000	0.080697	0.076284	67.967728
4443.000000	0.077529	0.076608	47.762111
4444.000000	0.077946	0.071036	48.691494
4445.000000	0.076302	0.071189	83.571787
4446.000000	0.075298	0.085570	45.647861
4447.000000	0.068870	0.062187	69.607496
4448.000000	0.070765	0.069003	77.200820
4449.000000	0.066002	0.062450	34.157749
4450.000000	0.061038	0.064281	70.785159
4451.000000	0.074438	0.078849	67.453089
4452.000000	0.069281	0.062258	40.511664
4453.000000	0.066544	0.065442	75.139737
4454.000000	0.084643	0.079656	63.572726
4455.000000	0.072113	0.069439	49.688897
4456.000000	0.077292	0.075454	73.980350
4457.000000	0.081797	0.085808	40.930431
4458.000000	0.075349	0.084201	47.575143
4459.000000	0.074539	0.074638	69.425882
4460.000000	0.076183	0.070186	31.569029
4461.000000	0.077493	0.082319	59.003946
4462.000000	0.082771	0.080242	69.457167
4463.000000	0.086503	0.083537	31.742653
4464.000000	0.086977	0.080145	70.273051
4465.000000	0.080295	0.069762	67.087353
4466.000000	0.076576	0.076648	49.349427
4467.000000	0.084747	0.080334	84.506379
4468.000000	0.082373	0.076512	70.774467
4469.000000	0.076749	0.067884	73.629702
4470.000000	0.079736	0.077946	91.874118
4471.000000	0.086261	0.084543	52.564640
4472.000000	0.068227	0.070517	67.547325
4473.000000	0.081888	0.078854	71.097954
4474.000000	0.078478	0.080368	28.317649
4475.000000	0.077896	0.085842	55.204807
4476.000000	0.070425	0.062226	54.523922
4477.000000	0.078341	0.072418	30.666950
4478.000000	0.081712	0.072686	56.022880
4479.000000	0.081043	0.082061	38.663552
4480.000000	0.076945	0.081274	31.855312
4481.000000	0.081753	0.074179	47.785121
4482.000000	0.082118	0.073472	27.859792
4483.000000	0.093111	0.090129	38.782702
4484.000000	0.084611	0.087963	45.717368
4485.000000	0.081070	0.089212	23.375047
4486.000000	0.081409	0.079620	38.969771
4487.000000	0.072211	0.073808	42.353445
4488.000000	0.072855	0.069653	19.450730
4489.000000	0.085875	0.089426	39.311257
4490.000000	0.082754	0.076083	38.695363
4491.000000	0.086701	0.092632	23.307827
4492.000000	0.076133	0.080162	40.553972
4493.000000	0.096522	0.083976	24.112603
4494.000000	0.079585	0.077652	23.091461
4495.000000	0.087112	0.088460	34.514101
4496.000000	0.076101	0.076770	16.849798
4497.000000	0.081194	0.078301	23.217471
4498.000000	0.081520	0.082558	26.267838
4499.000000	0.086009	0.082547	15.561861
4500.000000	0.083523	0.080366	30.157329
4501.000000	0.088765	0.086017	30.238776
4502.000000	0.086153	0.084017	17.410451
4503.000000	0.080148	0.079034	32.436889
4504.000000	0.072164	0.073621	31.252692
4505.000000	0.078944	0.078726	24.067665
4506.000000	0.081750	0.086213	44.130134
4507.000000	0.074062	0.066256	28.124313
4508.000000	0.073639	0.076043	30.218427
4509.000000	0.086267	0.101050	43.987109
4510.000000	0.072318	0.066186	21.366766
4511.000000	0.080491	0.077657	43.259041
4512.000000	0.095256	0.098376	43.079766
4513.000000	0.089479	0.096053	19.743532
4514.000000	0.080074	0.070909	47.937493
4515.000000	0.082573	0.087609	50.826292
4516.000000	0.081834	0.084974	32.732680
4517.000000	0.075476	0.076486	64.706513
4518.000000	0.074087	0.085120	47.996825
4519.000000	0.075570	0.073115	40.497052
4520.000000	0.078775	0.066789	65.409395
4521.000000	0.080749	0.074690	33.921065
4522.000000	0.082498	0.081815	48.192145
4523.000000	0.080872	0.085520	67.359545
4524.000000	0.078544	0.069605	35.713319
4525.000000	0.077664	0.086131	83.659133
4526.000000	0.085684	0.082838	82.572874
4527.000000	0.077711	0.072986	47.505359
4528.000000	0.075897	0.078796	93.113741
4529.000000	0.078611	0.076359	84.798739
4530.000000	0.076848	0.084532	62.421621
4531.000000	0.080978	0.082406	85.864371
4532.000000	0.073151	0.073613	66.412399
4533.000000	0.074801	0.072246	64.562139
4534.000000	0.067735	0.070969	88.223697
4535.000000	0.085436	0.087488	40.024589
4536.000000	0.079777	0.086901	57.354077
4537.000000	0.079861	0.082125	55.167759
4538.000000	0.075446	0.076456	17.896346
