

# Pol in full trans
# Scan parameters: power 16.000000 dBm, bandwidth 1.500000 Hz
# Frequency [MHz]	avg noise	std noise	peak value
3850.000000	6.713983	4.335810	1541.400111
3851.000000	1.076141	1.077920	1381.667160
3852.000000	1.242849	1.287772	888.134802
3853.000000	1.107025	1.152283	1849.544581
3854.000000	0.970848	0.912833	1480.736238
3855.000000	1.054558	0.974320	1287.149152
3856.000000	0.945652	0.816241	2142.807584
3857.000000	0.945371	0.855248	1483.983465
3858.000000	1.031451	1.032312	1938.197301
3859.000000	0.789725	0.705582	2519.317322
3860.000000	1.188617	1.209817	1456.030878
3861.000000	0.824136	0.806104	2457.087875
3862.000000	0.888311	0.849421	2733.747244
3863.000000	0.866922	0.894448	1378.398753
3864.000000	0.799387	0.699554	2953.152974
3865.000000	0.773631	0.767913	2748.515496
3866.000000	0.676281	0.731551	2055.146089
3867.000000	0.628870	0.579579	3593.656941
3868.000000	0.646312	0.586909	2417.614016
3869.000000	0.706643	0.809063	2385.760420
3870.000000	0.605192	0.618375	3384.055184
3871.000000	0.543674	0.543713	1781.717801
3872.000000	0.665964	0.724910	2388.997138
3873.000000	0.604795	0.527836	2891.640197
3874.000000	0.565586	0.548290	1177.102618
3875.000000	0.581604	0.559153	2421.169017
3876.000000	0.559910	0.540795	2394.184572
3877.000000	0.550504	0.639293	1368.455167
3878.000000	0.568039	0.537122	2665.364369
3879.000000	0.594781	0.656555	1989.306907
3880.000000	0.667401	0.685199	1769.588158
3881.000000	0.607857	0.608863	2553.195573
3882.000000	0.641929	0.584954	1563.187724
3883.000000	0.660598	0.610533	1880.720193
3884.000000	0.677873	0.636779	2201.257339
3885.000000	0.704365	0.740978	1183.436810
3886.000000	0.614694	0.594759	1933.780541
3887.000000	0.704515	0.693643	2033.213802
3888.000000	0.683573	0.656111	1004.469569
3889.000000	0.676988	0.667283	2142.559414
3890.000000	0.742684	0.863619	1834.890741
3891.000000	0.822154	0.808190	1158.868431
3892.000000	0.665600	0.647841	1857.032115
3893.000000	0.829443	0.948488	1155.997771
3894.000000	0.795531	0.786258	1077.157466
3895.000000	0.928605	0.969539	1437.875959
3896.000000	1.036004	0.936276	814.216802
3897.000000	1.091082	1.074575	1275.090000
3898.000000	1.229112	1.095933	1565.001037
3899.000000	1.350040	1.356837	675.656606
3900.000000	1.430534	1.349445	1718.349882
3901.000000	1.787844	1.858749	1680.303542
3902.000000	1.691768	1.761865	1027.473981
3903.000000	1.986632	2.027060	2337.739298
3904.000000	2.144977	1.917123	1952.625910
3905.000000	2.679632	2.701950	1759.439656
3906.000000	2.378479	2.256184	2882.687665
3907.000000	3.245261	3.222802	1968.082402
3908.000000	2.996563	2.980646	2401.279449
3909.000000	3.137174	3.093431	2844.480251
3910.000000	3.544754	3.488905	1424.129599
3911.000000	3.583163	3.373543	2314.734516
3912.000000	3.410108	3.372224	2287.033693
3913.000000	3.582229	4.051858	1151.112513
3914.000000	3.263995	3.249807	2069.189155
3915.000000	3.515206	3.453091	1660.756499
3916.000000	3.234562	3.581890	1153.298310
3917.000000	3.126197	3.317035	1870.241747
3918.000000	3.060143	2.901318	1356.885755
3919.000000	3.014286	2.881561	1373.963430
3920.000000	2.913857	2.975642	2061.813721
3921.000000	3.084196	3.229671	1067.161953
3922.000000	3.121880	2.722376	1756.064010
3923.000000	3.274778	3.010079	2084.419409
3924.000000	2.975056	3.150041	1069.402155
3925.000000	3.493140	3.008611	2139.160257
3926.000000	3.273264	3.421512	2146.383550
3927.000000	3.598104	3.885890	1304.414016
3928.000000	4.197215	4.634690	2445.471425
3929.000000	3.965144	4.013441	2293.631343
3930.000000	4.697582	4.896092	2049.089293
3931.000000	5.010420	5.231405	3298.622263
3932.000000	5.415610	6.336074	2489.212473
3933.000000	5.155578	5.101926	2774.099550
3934.000000	4.734504	4.671471	4304.862174
3935.000000	5.032893	4.824419	2075.043201
3936.000000	4.604799	4.626327	3998.476088
3937.000000	5.128441	5.006098	4621.271277
3938.000000	5.376819	5.332589	2127.201880
3939.000000	5.355754	5.098675	4817.868226
3940.000000	4.714639	4.829272	4394.034558
3941.000000	5.771678	6.028289	2921.691996
3942.000000	5.422942	5.331749	5020.752786
3943.000000	5.017044	4.918549	2702.447957
3944.000000	5.390164	5.458915	3299.911370
3945.000000	5.219855	4.938601	4148.107780
3946.000000	4.859256	4.623177	2228.359594
3947.000000	4.731712	5.276116	3034.294469
3948.000000	4.883363	4.905177	3117.623416
3949.000000	5.045545	5.193182	1448.982357
3950.000000	4.892823	4.469762	3055.485033
3951.000000	4.937056	4.846062	2909.261989
3952.000000	4.661214	4.546818	1375.701979
3953.000000	4.761766	4.993065	3213.223222
3954.000000	4.671592	4.843553	2433.466849
3955.000000	5.175924	5.051813	2121.245312
3956.000000	5.642865	5.009507	3049.562026
3957.000000	5.664260	5.989701	1965.283221
3958.000000	4.477959	4.478001	2310.971257
3959.000000	4.073431	4.040452	3091.806272
3960.000000	5.290940	4.967154	1862.640991
3961.000000	4.518878	4.539762	2582.856630
3962.000000	5.131314	4.795485	2475.474999
3963.000000	4.675513	4.903353	1383.024746
3964.000000	4.661691	4.849289	3280.084828
3965.000000	3.997137	4.073826	2967.557387
3966.000000	4.228909	4.259232	2071.102670
3967.000000	4.155419	4.235105	3769.773789
3968.000000	4.233721	4.104658	2587.397432
3969.000000	4.058633	4.098980	2580.278837
3970.000000	3.504506	3.478337	3697.265121
3971.000000	4.042848	3.820138	2058.075513
3972.000000	4.014116	4.117615	3173.426844
3973.000000	3.240348	3.297852	3371.819506
3974.000000	2.864667	3.068138	1410.756112
3975.000000	2.974972	3.127716	2832.991001
3976.000000	3.216285	2.845665	2652.588098
3977.000000	2.912494	2.807257	1482.922337
3978.000000	2.620467	2.415128	2692.012978
3979.000000	2.697482	2.454131	2147.762312
3980.000000	1.999068	2.127385	1942.490672
3981.000000	2.130276	2.170186	3006.647469
3982.000000	2.004425	1.886066	1893.333594
3983.000000	1.758180	1.721033	2347.757519
3984.000000	1.852318	1.921087	3027.184266
3985.000000	1.730392	1.693047	1610.983229
3986.000000	1.761811	1.744965	2541.036078
3987.000000	1.572422	1.577268	2736.846018
3988.000000	1.400434	1.368847	1305.033950
3989.000000	1.434270	1.373421	2646.624024
3990.000000	1.649199	1.753402	2382.871732
3991.000000	1.481131	1.366741	1635.997976
3992.000000	1.297174	1.296830	2866.882448
3993.000000	1.372880	1.231892	2105.397502
3994.000000	1.281738	1.218861	2018.085027
3995.000000	1.312663	1.182292	2677.078989
3996.000000	1.382495	1.336270	1577.380236
3997.000000	1.052238	1.107491	2353.235702
3998.000000	1.190837	1.107455	2527.635583
3999.000000	1.101293	1.164215	1112.587994
4000.000000	0.871432	0.845395	2157.231392
4001.000000	1.042204	1.057425	2055.951908
4002.000000	0.933499	0.938828	1060.181780
4003.000000	1.023332	0.994234	1885.438832
4004.000000	0.941746	0.957296	1300.069923
4005.000000	0.851025	0.862003	995.045728
4006.000000	0.843166	0.903030	1417.752310
4007.000000	0.873535	0.914210	788.259244
4008.000000	0.850066	0.947261	786.496243
4009.000000	0.793085	0.772537	869.831361
4010.000000	0.786304	0.736927	400.128336
4011.000000	0.751417	0.757975	637.145066
4012.000000	0.830963	0.881945	550.705682
4013.000000	0.949008	1.040591	290.968218
4014.000000	0.901441	0.811172	576.193562
4015.000000	0.894702	0.885005	459.011270
4016.000000	0.724582	0.717934	283.234410
4017.000000	0.681851	0.785253	488.792428
4018.000000	0.642331	0.653691	299.956756
4019.000000	0.733068	0.794178	274.647507
4020.000000	0.732088	0.865943	349.302012
4021.000000	0.743015	0.752687	197.290762
4022.000000	0.676187	0.740881	234.026894
4023.000000	0.658735	0.649326	259.771098
4024.000000	0.730716	0.734399	132.555166
4025.000000	0.774217	0.812264	246.181478
4026.000000	0.660472	0.590334	229.216693
4027.000000	0.595298	0.624807	114.189946
4028.000000	0.748524	0.693135	225.674536
4029.000000	0.647125	0.699472	196.556195
4030.000000	0.636321	0.734663	122.041741
4031.000000	0.588149	0.611883	177.956388
4032.000000	0.598818	0.614574	85.469000
4033.000000	0.654233	0.814825	120.136850
4034.000000	0.649288	0.582505	150.832680
4035.000000	0.689802	0.781737	52.745386
4036.000000	0.697729	0.668511	96.731005
4037.000000	0.653360	0.650438	106.587572
4038.000000	0.657437	0.607497	37.947802
4039.000000	0.694949	0.687400	82.117193
4040.000000	0.693655	0.677443	58.423181
4041.000000	0.652059	0.713066	51.113725
4042.000000	0.702281	0.697453	72.427988
4043.000000	0.760361	0.714135	42.390561
4044.000000	0.670184	0.670897	47.786149
4045.000000	0.861643	0.875235	93.723550
4046.000000	0.770876	0.785560	46.733925
4047.000000	0.890419	0.910065	69.653436
4048.000000	0.928629	0.931630	83.724132
4049.000000	0.945354	0.974366	49.248093
4050.000000	0.835099	0.751145	122.894268
4051.000000	0.955252	0.898167	151.793926
4052.000000	1.057403	1.040153	117.249612
4053.000000	0.928557	0.953230	226.112528
4054.000000	0.857568	0.782460	287.525263
4055.000000	0.942145	0.967616	228.302588
4056.000000	0.924670	0.810732	435.861527
4057.000000	0.953351	0.948933	363.303032
4058.000000	0.968047	1.004118	434.128315
4059.000000	1.088290	1.108683	616.239176
4060.000000	1.021743	1.008905	344.099508
4061.000000	1.037660	0.947550	530.936003
4062.000000	1.211325	1.204678	558.504488
4063.000000	1.008652	0.949157	250.751113
4064.000000	1.176850	1.118066	638.258028
4065.000000	1.273247	1.102379	581.830486
4066.000000	1.097705	1.062625	420.298742
4067.000000	1.184314	0.992347	723.341938
4068.000000	1.146976	1.189423	571.556864
4069.000000	1.253603	1.190750	495.631364
4070.000000	1.288757	1.324427	706.444599
4071.000000	1.473880	1.356983	449.405295
4072.000000	1.646977	1.702250	578.184989
4073.000000	1.463417	1.503881	812.233041
4074.000000	1.436289	1.517165	377.948609
4075.000000	1.775114	1.621454	750.278879
4076.000000	1.637858	1.609703	806.720974
4077.000000	1.654370	1.697993	475.848866
4078.000000	2.219148	1.934558	813.290536
4079.000000	1.659107	1.567521	529.116634
4080.000000	1.757660	1.667086	514.228426
4081.000000	1.946095	2.051211	683.972446
4082.000000	2.010885	2.124015	397.039505
4083.000000	2.178199	2.102313	411.615512
4084.000000	2.240094	2.370211	587.277602
4085.000000	2.803441	2.626350	353.454708
4086.000000	2.955107	2.956732	644.574364
4087.000000	2.896477	2.789966	709.602745
4088.000000	3.238496	2.960386	406.001334
4089.000000	3.358835	3.402900	910.406427
4090.000000	3.483116	3.467647	889.747521
4091.000000	3.306640	3.266500	576.200345
4092.000000	3.456046	3.673916	1165.482899
4093.000000	3.911414	3.757899	839.801814
4094.000000	4.019363	3.402732	819.398534
4095.000000	4.533257	4.120239	1550.441284
4096.000000	4.840738	5.235471	657.499458
4097.000000	4.474487	4.316430	1082.377385
4098.000000	4.753705	4.310348	1254.103304
4099.000000	6.593662	6.087600	522.069199
4100.000000	5.160929	5.589572	1060.032869
4101.000000	5.262240	5.381997	1076.146523
4102.000000	6.550948	6.566479	585.216761
4103.000000	6.541701	6.008769	1182.978980
4104.000000	7.898640	7.682514	974.558875
4105.000000	8.889765	8.959175	755.718713
4106.000000	8.729777	7.690324	963.946877
4107.000000	8.977761	8.227650	387.654953
4108.000000	9.401557	8.589059	505.712347
4109.000000	9.843647	10.870763	852.453400
4110.000000	14.383332	14.815105	431.840879
4111.000000	14.376648	13.195948	622.642082
4112.000000	12.506775	11.603613	555.966350
4113.000000	14.440419	12.582778	274.663777
4114.000000	17.092345	14.660790	677.913457
4115.000000	14.791184	13.962679	765.502549
4116.000000	15.745731	16.828636	286.534727
4117.000000	16.620762	16.559386	595.020994
4118.000000	17.033642	16.182121	379.996168
4119.000000	20.468295	18.021125	447.618010
4120.000000	17.174546	17.926742	512.518654
4121.000000	18.902871	19.763712	281.723501
4122.000000	17.185879	17.063591	624.227142
4123.000000	22.137473	20.183487	1005.676104
4124.000000	18.885492	19.717054	279.927717
4125.000000	16.746516	16.264372	571.320520
4126.000000	19.874013	19.484583	752.366289
4127.000000	23.427710	25.572738	355.611315
4128.000000	23.725897	23.146085	1224.791502
4129.000000	19.983859	23.332100	746.582245
4130.000000	21.713045	23.631024	514.287585
4131.000000	22.460441	23.869957	652.930722
4132.000000	21.104789	21.598875	521.207369
4133.000000	19.131164	19.923820	553.072100
4134.000000	20.119115	19.384445	818.700022
4135.000000	19.158989	20.820310	435.950870
4136.000000	14.589845	14.240594	568.672315
4137.000000	17.535646	15.013718	712.110148
4138.000000	17.218114	16.767232	317.952968
4139.000000	15.245897	13.973254	785.698836
4140.000000	17.199994	16.963093	543.171160
4141.000000	17.770301	18.086925	575.951183
4142.000000	15.782636	17.890690	1137.866040
4143.000000	18.594886	17.724217	598.511465
4144.000000	16.536545	16.558463	587.924511
4145.000000	16.612207	16.517375	910.247693
4146.000000	14.314824	13.484172	1174.184863
4147.000000	14.576114	15.405896	876.238934
4148.000000	14.869925	15.181057	1606.661291
4149.000000	13.978524	13.416548	587.967917
4150.000000	13.129906	14.201347	1795.727875
4151.000000	11.863646	12.642556	1660.520211
4152.000000	10.738436	12.591085	883.912322
4153.000000	10.015422	9.200374	1913.481710
4154.000000	10.481206	10.756944	1620.231959
4155.000000	10.819897	10.467974	1361.249291
4156.000000	9.188191	8.689068	1748.237727
4157.000000	8.112021	7.682390	1238.384298
4158.000000	7.216612	7.690651	1647.343701
4159.000000	7.025347	6.197941	2095.428090
4160.000000	6.808892	7.031172	1160.686128
4161.000000	6.879395	6.779581	2006.415168
4162.000000	5.558297	5.436150	2151.032214
4163.000000	5.338173	5.077309	1030.337397
4164.000000	5.220328	5.143070	2055.175708
4165.000000	4.973130	4.684783	2097.747559
4166.000000	4.173807	3.952741	1315.318029
4167.000000	4.329039	4.451411	2229.431984
4168.000000	4.207570	4.293058	1547.046119
4169.000000	3.877471	3.980463	1514.092240
4170.000000	3.638371	3.220586	2046.983611
4171.000000	3.390379	3.871040	1355.144633
4172.000000	3.177883	3.182397	1788.804941
4173.000000	2.863625	2.666407	2072.022708
4174.000000	2.791617	3.000805	916.258061
4175.000000	2.371577	2.364908	2018.644457
4176.000000	2.910431	2.935853	1790.539867
4177.000000	2.829215	3.161359	1094.619390
4178.000000	2.752234	2.767573	1823.445439
4179.000000	2.275414	1.984831	1539.161091
4180.000000	2.667571	2.778720	1121.297924
4181.000000	2.721749	2.666162	1762.038260
4182.000000	2.448328	2.558470	1053.857347
4183.000000	2.701982	2.497299	1448.999767
4184.000000	3.044788	3.353386	1616.383874
4185.000000	2.674254	2.853620	928.567367
4186.000000	3.025430	3.091683	1376.322440
4187.000000	2.897472	2.800001	1594.641882
4188.000000	2.789848	2.745602	803.834440
4189.000000	3.124985	2.909451	1494.663286
4190.000000	3.340776	3.315152	1466.905886
4191.000000	3.930804	3.893869	974.551819
4192.000000	3.846469	4.387150	1525.444275
4193.000000	3.915558	3.561749	1215.566217
4194.000000	4.200351	4.206946	908.412907
4195.000000	3.981244	3.790246	1774.254933
4196.000000	3.931315	4.045801	914.412539
4197.000000	4.995220	4.630753	1149.484601
4198.000000	4.621986	4.657812	1582.826207
4199.000000	4.971721	5.092844	652.120230
4200.000000	5.095223	5.335716	1360.858567
4201.000000	4.743939	4.728542	1252.390352
4202.000000	3.688112	3.430727	834.406007
4203.000000	4.480286	4.332839	1409.152992
4204.000000	4.332406	4.072651	981.534931
4205.000000	4.085295	4.490348	997.745993
4206.000000	4.492177	4.477346	1355.405583
4207.000000	4.538546	4.439695	977.940707
4208.000000	4.783005	4.354855	1065.312962
4209.000000	4.961196	4.845384	1213.903874
4210.000000	4.418770	4.603481	708.860464
4211.000000	4.011250	4.860354	1195.449402
4212.000000	3.855338	3.947433	908.569293
4213.000000	4.611702	4.591253	474.463374
4214.000000	4.047234	3.757891	1008.865329
4215.000000	3.396439	3.773740	853.986776
4216.000000	4.449970	4.448895	461.228167
4217.000000	4.149310	3.817903	1034.173513
4218.000000	4.531272	4.836957	700.467649
4219.000000	3.816761	4.150563	712.899164
4220.000000	4.434446	4.375964	1008.958545
4221.000000	4.955306	4.751440	507.445740
4222.000000	3.883067	3.688408	763.712960
4223.000000	4.220499	4.515155	701.700563
4224.000000	4.219146	4.019952	410.010990
4225.000000	4.250835	4.077975	690.049058
4226.000000	3.730297	3.902680	893.117777
4227.000000	4.456045	4.571203	435.819444
4228.000000	3.774371	3.803862	803.918351
4229.000000	3.848587	4.355730	564.094352
4230.000000	3.713245	4.089950	407.869263
4231.000000	2.970198	3.291013	799.068739
4232.000000	2.934602	2.982147	422.860314
4233.000000	2.882137	3.004367	573.420070
4234.000000	3.301113	3.046787	627.778600
4235.000000	3.155330	3.408399	366.537021
4236.000000	2.645760	2.442753	477.785234
4237.000000	3.108711	3.254734	453.125126
4238.000000	2.717461	2.372976	157.864134
4239.000000	2.762642	2.930580	307.950208
4240.000000	2.579807	2.563563	300.543372
4241.000000	2.406891	2.092114	185.848554
4242.000000	2.781225	2.972829	221.195439
4243.000000	2.515060	2.554692	183.744285
4244.000000	2.311332	2.224192	184.826592
4245.000000	2.303488	2.409936	227.317950
4246.000000	1.910043	2.158720	158.828681
4247.000000	2.117740	1.934696	185.811346
4248.000000	2.003903	2.002763	208.933813
4249.000000	2.006020	1.967606	84.500544
4250.000000	1.908393	1.888884	228.138019
4251.000000	1.884813	1.884416	231.465782
4252.000000	2.014780	1.984669	122.090120
4253.000000	1.844057	1.758137	224.369668
4254.000000	1.672803	1.763614	231.613485
4255.000000	1.644846	1.555877	208.160862
4256.000000	1.495500	1.439298	307.224220
4257.000000	1.315336	1.568722	166.045414
4258.000000	1.662365	1.369993	172.641707
4259.000000	1.464672	1.446707	278.387285
4260.000000	1.646040	1.628122	93.230777
4261.000000	1.633492	1.694036	195.050627
4262.000000	1.417510	1.438119	154.576543
4263.000000	1.340924	1.318967	98.914810
4264.000000	1.439155	1.409407	172.020276
4265.000000	1.828976	1.905309	184.869575
4266.000000	1.583401	1.524530	96.554846
4267.000000	1.565607	1.541463	205.741920
4268.000000	1.501787	1.617022	145.464618
4269.000000	1.516426	1.414062	109.044400
4270.000000	1.254322	1.151384	138.508849
4271.000000	1.291451	1.250615	95.877540
4272.000000	1.419348	1.489783	101.849553
4273.000000	1.538504	1.489001	104.901911
4274.000000	1.374105	1.365794	47.658212
4275.000000	1.493809	1.313750	76.740363
4276.000000	1.181946	1.076706	78.401619
4277.000000	1.249656	1.252410	31.588553
4278.000000	1.277470	1.374246	63.946050
4279.000000	1.126029	1.154740	64.891090
4280.000000	1.077672	1.087670	31.099209
4281.000000	0.898110	0.898266	86.705039
4282.000000	0.843640	0.873430	38.643882
4283.000000	0.803847	0.700677	57.928071
4284.000000	0.874762	0.877702	63.765632
4285.000000	0.761455	0.723147	36.447417
4286.000000	0.737857	0.785269	60.764853
4287.000000	0.677297	0.680704	70.802800
4288.000000	0.652374	0.660619	41.054217
4289.000000	0.657070	0.596263	83.617107
4290.000000	0.578983	0.567387	66.279006
4291.000000	0.445087	0.447145	56.193381
4292.000000	0.473685	0.476877	95.224549
4293.000000	0.473208	0.457183	50.622015
4294.000000	0.458304	0.452579	49.947262
4295.000000	0.455058	0.441354	66.995523
4296.000000	0.495306	0.473350	37.378242
4297.000000	0.488808	0.517301	43.888536
4298.000000	0.514568	0.549399	55.270469
4299.000000	0.509802	0.479298	26.102605
4300.000000	0.516421	0.508745	56.984759
4301.000000	0.569619	0.573445	67.068373
4302.000000	0.501735	0.500973	33.964701
4303.000000	0.583060	0.598928	94.656230
4304.000000	0.493619	0.527431	64.024163
4305.000000	0.587932	0.663393	50.549231
4306.000000	0.513384	0.480749	73.198043
4307.000000	0.590992	0.570182	52.024775
4308.000000	0.579936	0.582128	66.042758
4309.000000	0.744724	0.833322	85.318261
4310.000000	0.709744	0.656899	63.907602
4311.000000	0.703572	0.659791	81.900589
4312.000000	0.675622	0.634451	84.663335
4313.000000	0.919672	0.764643	32.159081
4314.000000	0.886668	0.895468	110.075232
4315.000000	1.033695	1.015810	130.261916
4316.000000	1.300079	1.266611	81.071523
4317.000000	1.356491	1.401655	200.059356
4318.000000	1.577393	1.554505	105.180480
4319.000000	1.849478	1.824828	192.023430
4320.000000	1.871300	1.819978	238.757545
4321.000000	2.238905	2.055383	109.454553
4322.000000	2.391146	2.101788	276.438413
4323.000000	2.515216	2.367365	303.380767
4324.000000	2.579910	2.486699	174.194324
4325.000000	2.920526	2.888603	423.712017
4326.000000	2.798894	2.867558	507.344596
4327.000000	3.382867	3.740960	220.129681
4328.000000	3.289263	3.082472	454.881565
4329.000000	3.715198	3.552999	373.749635
4330.000000	3.977833	4.420456	345.348512
4331.000000	4.125312	4.058456	657.371065
4332.000000	4.876872	4.387039	400.740239
4333.000000	4.382119	4.286184	476.384553
4334.000000	4.489245	4.320482	684.835117
4335.000000	4.858709	5.062091	313.980042
4336.000000	5.021240	4.732558	410.470896
4337.000000	4.664626	4.669730	424.950375
4338.000000	5.378939	5.367014	220.310875
4339.000000	5.015343	5.311624	451.231653
4340.000000	5.368101	5.612914	285.697711
4341.000000	4.409202	4.542849	204.446549
4342.000000	3.954436	3.746328	499.111474
4343.000000	3.860459	3.540039	377.491027
4344.000000	3.239054	3.000572	277.828526
4345.000000	4.632696	4.015119	584.573845
4346.000000	3.923539	3.875409	376.111386
4347.000000	3.720009	3.454341	412.469488
4348.000000	4.546991	5.005560	435.690842
4349.000000	4.962876	5.278573	201.536859
4350.000000	4.119412	4.079584	400.573548
4351.000000	3.978206	3.606275	348.156625
4352.000000	4.380900	3.962215	147.414722
4353.000000	3.996744	4.473482	329.535372
4354.000000	3.665151	3.146169	208.360672
4355.000000	3.601525	3.712645	133.554834
4356.000000	4.087226	4.580550	121.534414
4357.000000	3.583690	3.452374	100.282282
4358.000000	4.249060	4.453983	54.982303
4359.000000	3.331131	3.527684	103.219520
4360.000000	2.986442	2.539747	36.905558
4361.000000	3.139516	2.999380	64.450330
4362.000000	2.917429	2.677116	185.070757
4363.000000	2.952867	2.734852	93.233607
4364.000000	2.921592	2.973718	166.369844
4365.000000	2.907860	2.886994	133.931853
4366.000000	3.258505	3.447215	116.474574
4367.000000	2.719090	2.471258	213.514065
4368.000000	2.813018	2.761459	125.554092
4369.000000	2.490395	2.556293	169.844912
4370.000000	3.118079	3.162704	197.694007
4371.000000	2.525567	2.658365	76.805789
4372.000000	2.191562	2.463564	141.654742
4373.000000	2.193067	2.371939	175.008790
4374.000000	2.029517	2.109494	69.438233
4375.000000	2.747498	2.434469	137.996307
4376.000000	2.279077	2.263520	123.296465
4377.000000	2.223260	2.106190	117.236168
4378.000000	1.994516	1.846612	169.982484
4379.000000	1.977030	1.974775	147.646490
4380.000000	2.130628	2.100292	77.016344
4381.000000	1.969346	1.932025	155.366383
4382.000000	1.739265	2.064858	70.974725
4383.000000	1.654654	1.471791	112.438506
4384.000000	1.654070	1.492376	134.800906
4385.000000	1.460929	1.423419	86.017566
4386.000000	1.339677	1.179065	117.945022
4387.000000	1.312447	1.309014	136.213247
4388.000000	1.405807	1.461187	63.372676
4389.000000	1.275017	1.144399	130.883951
4390.000000	1.283439	1.355662	145.030810
4391.000000	1.333579	1.213392	95.630344
4392.000000	1.204740	1.189158	214.474318
4393.000000	1.165267	1.164582	149.983450
4394.000000	1.169557	1.090176	94.295977
4395.000000	0.949544	0.958006	176.816207
4396.000000	1.102798	1.002349	86.457928
4397.000000	0.973511	1.016375	134.784820
4398.000000	0.975016	1.054602	162.381803
4399.000000	0.781445	0.720571	86.793249
4400.000000	0.712750	0.729401	140.471183
4401.000000	0.763618	0.762413	122.466006
4402.000000	0.703362	0.641553	69.867994
4403.000000	0.801324	0.739553	121.518155
4404.000000	0.616182	0.637176	102.303511
4405.000000	0.585788	0.578091	86.846211
4406.000000	0.641022	0.602598	114.479710
4407.000000	0.620810	0.586597	87.678441
4408.000000	0.600935	0.615155	88.589977
4409.000000	0.511366	0.446444	120.479156
4410.000000	0.580634	0.575114	50.601315
4411.000000	0.546800	0.586240	103.260258
4412.000000	0.493100	0.434496	89.159524
4413.000000	0.428493	0.469857	38.452040
4414.000000	0.512660	0.535971	81.513827
4415.000000	0.462597	0.496326	77.338526
4416.000000	0.429868	0.414562	46.624179
4417.000000	0.479662	0.427481	81.925408
4418.000000	0.405717	0.427362	51.522214
4419.000000	0.371505	0.381633	44.918164
4420.000000	0.381295	0.359520	80.301610
4421.000000	0.368272	0.338783	28.854078
4422.000000	0.365269	0.373950	37.641132
4423.000000	0.367035	0.327921	48.656855
4424.000000	0.318577	0.342636	17.696554
4425.000000	0.350351	0.369723	43.652063
4426.000000	0.286905	0.255650	34.693723
4427.000000	0.315967	0.281113	25.038235
4428.000000	0.333838	0.338664	40.454366
4429.000000	0.300806	0.304491	27.596992
4430.000000	0.338787	0.326501	20.856522
4431.000000	0.320278	0.293291	27.823018
4432.000000	0.378402	0.340593	15.027734
4433.000000	0.356977	0.387220	24.000378
4434.000000	0.353174	0.336531	19.221683
4435.000000	0.347123	0.374901	12.411861
4436.000000	0.503225	0.471655	13.368751
4437.000000	0.503674	0.520913	22.147469
4438.000000	0.491116	0.532518	12.868618
4439.000000	0.499763	0.480078	46.099264
4440.000000	0.515923	0.438000	34.775215
4441.000000	0.592782	0.562469	29.342220
4442.000000	0.531049	0.453090	85.283346
4443.000000	0.632651	0.612622	48.842695
4444.000000	0.561558	0.501407	55.897069
4445.000000	0.582897	0.596163	106.212891
4446.000000	0.578113	0.612916	66.429615
4447.000000	0.645744	0.604772	106.650328
4448.000000	0.667684	0.764414	149.367778
4449.000000	0.804009	0.739977	69.511721
4450.000000	0.831795	0.839934	130.320205
4451.000000	0.792904	0.793069	146.406718
4452.000000	0.794566	0.756653	82.652655
4453.000000	0.921509	0.965970	163.719217
4454.000000	0.985742	1.032538	122.423312
4455.000000	1.006733	0.912451	136.314851
4456.000000	0.884794	0.900323	161.857954
4457.000000	1.087545	1.053635	73.546265
4458.000000	1.184229	1.243114	175.994960
4459.000000	1.363795	1.377623	161.347192
4460.000000	1.606419	1.655945	91.420766
4461.000000	1.687016	1.878741	163.087949
4462.000000	1.469454	1.314738	116.060055
4463.000000	1.513515	1.334744	40.667572
4464.000000	2.225854	2.049557	93.787151
4465.000000	1.843034	1.972745	90.921953
4466.000000	2.134410	2.111989	53.334413
4467.000000	2.550098	2.302071	66.438274
4468.000000	2.585657	2.392600	31.803152
4469.000000	2.877915	3.030252	34.959531
4470.000000	2.797506	2.760406	58.595694
4471.000000	3.202254	3.384802	11.687560
4472.000000	3.613623	3.089226	20.351311
4473.000000	4.210686	4.498634	15.895878
4474.000000	3.907629	3.602196	15.834223
4475.000000	5.050315	4.949913	37.858857
4476.000000	5.381050	5.702626	26.504720
4477.000000	7.566301	8.073740	59.335327
4478.000000	7.202903	7.405040	42.992848
4479.000000	6.890530	6.313678	79.721128
4480.000000	6.507282	6.403544	29.456716
4481.000000	6.399460	6.738693	52.767808
4482.000000	5.517624	5.355535	136.234711
4483.000000	5.813193	6.093133	64.290636
4484.000000	5.730510	5.668535	77.493409
4485.000000	7.138100	6.552296	92.141214
4486.000000	7.552244	7.868820	191.347849
4487.000000	7.085388	7.523732	224.377868
4488.000000	6.723270	6.344878	131.565816
4489.000000	7.886637	8.553234	162.248519
4490.000000	7.351745	7.796250	203.948678
4491.000000	7.555255	7.311516	156.191262
4492.000000	6.905531	6.500188	198.329749
4493.000000	8.624508	8.593793	217.846809
4494.000000	8.103059	8.344609	214.034311
4495.000000	7.382124	7.939051	171.932795
4496.000000	7.633660	7.147415	177.035371
4497.000000	6.515895	6.553285	307.327486
4498.000000	8.135071	7.200329	486.033824
4499.000000	7.536930	8.248017	152.730495
4500.000000	6.689649	6.255923	419.706050
4501.000000	6.156834	6.308153	498.764318
4502.000000	7.311487	7.620940	268.044219
4503.000000	6.156901	6.428213	356.693438
4504.000000	7.542209	8.020592	370.413234
4505.000000	7.054674	6.118015	307.400682
4506.000000	8.301624	8.806910	548.261258
4507.000000	6.709720	7.002577	459.551457
4508.000000	6.663818	6.484828	485.551830
4509.000000	7.311291	6.742251	694.031699
4510.000000	7.211778	7.521757	386.524344
4511.000000	7.398457	7.097652	583.358823
4512.000000	7.055455	6.198517	658.279200
4513.000000	6.435987	6.091434	316.573580
4514.000000	7.377252	7.293776	614.991304
4515.000000	7.619019	7.092736	454.115504
4516.000000	6.940594	5.966319	319.017410
4517.000000	7.482222	7.525100	778.902642
4518.000000	6.364193	6.491009	519.557031
4519.000000	5.812001	6.326109	719.952357
4520.000000	6.134625	5.441157	886.612695
4521.000000	6.051753	5.932031	500.632622
4522.000000	5.362459	5.338195	917.770551
4523.000000	4.801268	4.532510	1165.331186
4524.000000	5.508091	5.724201	457.555958
4525.000000	5.358604	5.708429	941.169015
4526.000000	5.600628	6.289161	848.005833
4527.000000	5.127306	5.460899	539.100311
4528.000000	5.157026	5.550641	990.925687
4529.000000	4.832140	4.434022	849.113944
4530.000000	3.962364	3.763517	658.354862
4531.000000	4.450161	4.160842	1241.087700
4532.000000	3.869149	4.241900	747.815284
4533.000000	3.992792	3.783299	775.762268
4534.000000	3.750111	3.498758	1046.619321
4535.000000	3.455160	3.304531	484.254461
4536.000000	3.960516	3.977455	693.096652
4537.000000	3.530330	3.317437	848.850806
4538.000000	3.009814	2.925516	337.153692
4539.000000	3.428667	3.448874	865.246943
4540.000000	2.776649	2.489584	762.285616
4541.000000	2.581133	2.570315	403.728741
4542.000000	2.297065	2.272856	865.977530
4543.000000	2.569632	2.358278	678.803792
4544.000000	2.062911	2.002446	625.986914
4545.000000	1.751686	1.583213	832.299791
4546.000000	1.566314	1.706587	529.731868
4547.000000	1.806485	1.733314	805.982201
4548.000000	1.643820	1.573206	942.895644
4549.000000	1.525788	1.424106	385.901282
4550.000000	1.355916	1.335867	778.878747
4551.000000	1.344496	1.293954	732.279437
4552.000000	1.284766	1.300841	438.482923
4553.000000	1.112539	1.069543	783.251682
4554.000000	1.109344	1.328334	652.564104
4555.000000	1.063147	1.030031	500.868628
4556.000000	0.810560	0.736792	693.705814
4557.000000	0.906982	0.877982	483.989238
4558.000000	0.842739	0.890878	525.523970
4559.000000	0.770738	0.784064	696.199324
4560.000000	0.622413	0.583373	318.210715
4561.000000	0.515305	0.512687	542.021502
4562.000000	0.676439	0.686732	522.704106
4563.000000	0.597629	0.619675	250.194409
4564.000000	0.563591	0.607316	547.994574
4565.000000	0.628713	0.634213	537.477457
4566.000000	0.605350	0.640907	397.275951
4567.000000	0.571643	0.506142	783.307142
4568.000000	0.565829	0.536663	641.944260
4569.000000	0.523275	0.560667	691.892150
4570.000000	0.469695	0.453110	1048.462706
4571.000000	0.495704	0.487146	616.637999
4572.000000	0.506847	0.450851	935.216072
4573.000000	0.451518	0.459213	963.958486
4574.000000	0.435356	0.404764	457.431489
4575.000000	0.465650	0.474890	971.029616
4576.000000	0.466229	0.458131	992.638322
4577.000000	0.449979	0.484641	544.767610
4578.000000	0.480859	0.465067	988.352698
4579.000000	0.414713	0.449436	803.705346
4580.000000	0.340026	0.339507	633.181916
4581.000000	0.385919	0.383164	932.186621
4582.000000	0.394554	0.471973	584.233086
4583.000000	0.405304	0.481020	623.094334
4584.000000	0.371246	0.423182	713.124701
4585.000000	0.371562	0.447602	392.550502
4586.000000	0.354075	0.327487	582.819337
4587.000000	0.374551	0.361756	612.232710
4588.000000	0.356899	0.323192	281.177697
4589.000000	0.373037	0.363440	561.819197
4590.000000	0.352343	0.359169	484.311232
4591.000000	0.284905	0.278050	336.377489
4592.000000	0.346234	0.286556	579.286611
4593.000000	0.356494	0.344022	400.389686
4594.000000	0.344591	0.333858	398.383851
4595.000000	0.346136	0.307259	547.731339
4596.000000	0.337433	0.328649	291.383939
4597.000000	0.351705	0.322743	448.153965
4598.000000	0.375183	0.365373	464.633153
4599.000000	0.317579	0.339103	178.478522
4600.000000	0.349006	0.319653	360.097715
4601.000000	0.379190	0.440197	364.671908
4602.000000	0.345839	0.352741	203.593219
4603.000000	0.374051	0.340299	418.032826
4604.000000	0.347879	0.354058	367.911992
4605.000000	0.321373	0.347541	333.580273
4606.000000	0.405235	0.394856	606.224252
4607.000000	0.311761	0.274993	385.048694
4608.000000	0.302580	0.318063	448.861244
4609.000000	0.301266	0.298511	577.220274
4610.000000	0.280786	0.289006	287.318324
4611.000000	0.314135	0.309551	511.066502
4612.000000	0.286106	0.362870	603.396133
4613.000000	0.321924	0.335928	283.304391
4614.000000	0.291726	0.299464	605.363536
4615.000000	0.347603	0.345713	520.166436
4616.000000	0.269249	0.241477	378.806808
4617.000000	0.284482	0.266400	673.940565
4618.000000	0.299453	0.320690	454.574491
4619.000000	0.296531	0.321734	424.232923
4620.000000	0.256806	0.273382	664.319765
4621.000000	0.324405	0.304200	334.958719
4622.000000	0.320191	0.298913	444.211606
4623.000000	0.316972	0.302642	412.915995
4624.000000	0.321264	0.337301	201.901978
4625.000000	0.307092	0.314615	347.302058
4626.000000	0.277389	0.277265	334.263990
4627.000000	0.299196	0.276950	189.979137
4628.000000	0.304741	0.303839	310.297363
4629.000000	0.301518	0.304708	218.377795
4630.000000	0.328595	0.339503	185.823284
4631.000000	0.326549	0.309119	277.208912
4632.000000	0.327639	0.361077	173.924898
4633.000000	0.308396	0.312537	177.108296
4634.000000	0.350940	0.345260	216.141174
4635.000000	0.299793	0.300314	113.926746
4636.000000	0.300885	0.299839	178.191975
4637.000000	0.317109	0.309739	179.845560
4638.000000	0.330642	0.383608	78.779340
4639.000000	0.315088	0.323562	155.037780
4640.000000	0.356628	0.309501	117.572271
4641.000000	0.291894	0.278272	82.559816
4642.000000	0.361159	0.363970	129.433295
4643.000000	0.309810	0.305609	76.848140
4644.000000	0.332823	0.310486	86.605310
4645.000000	0.335491	0.360616	127.630497
4646.000000	0.369761	0.365014	80.772269
4647.000000	0.422504	0.428824	137.446024
4648.000000	0.435398	0.390754	169.844938
4649.000000	0.419010	0.391599	79.612373
4650.000000	0.365545	0.344334	151.981303
4651.000000	0.404946	0.453068	148.200460
4652.000000	0.417221	0.425472	74.614238
4653.000000	0.518890	0.569365	147.696179
4654.000000	0.448732	0.458872	111.070938
4655.000000	0.455328	0.436370	81.282381
4656.000000	0.409406	0.429170	104.872697
4657.000000	0.475916	0.470847	61.452826
4658.000000	0.466192	0.432279	72.426999
4659.000000	0.474679	0.485603	69.533984
4660.000000	0.457732	0.422327	35.014768
4661.000000	0.498284	0.469883	45.242828
4662.000000	0.456747	0.465354	43.542835
4663.000000	0.468221	0.447217	26.470718
4664.000000	0.425718	0.459044	33.921970
4665.000000	0.452532	0.461634	31.460124
4666.000000	0.420713	0.391046	26.234016
4667.000000	0.390190	0.369730	61.608005
4668.000000	0.485959	0.511617	43.563382
4669.000000	0.398856	0.366369	54.663804
4670.000000	0.377986	0.338920	85.987133
4671.000000	0.415653	0.433601	71.636431
4672.000000	0.436521	0.464927	87.035240
4673.000000	0.406045	0.413129	141.944595
4674.000000	0.408403	0.373945	52.968753
4675.000000	0.371325	0.392442	162.818265
4676.000000	0.445389	0.476981	146.285081
4677.000000	0.373069	0.345697	73.335728
4678.000000	0.443508	0.438927	179.359171
4679.000000	0.428436	0.454730	141.835965
4680.000000	0.418651	0.384614	132.439537
4681.000000	0.386762	0.432289	206.536658
4682.000000	0.410141	0.408256	170.405839
4683.000000	0.356804	0.363502	157.152592
4684.000000	0.364969	0.383664	187.176835
4685.000000	0.367611	0.343819	91.009686
4686.000000	0.362452	0.374716	164.053470
4687.000000	0.372734	0.339596	151.396406
4688.000000	0.388168	0.401395	74.687053
4689.000000	0.395299	0.399434	175.341083
4690.000000	0.359612	0.325868	165.164102
4691.000000	0.369451	0.357312	109.557527
4692.000000	0.327999	0.318163	234.715236
4693.000000	0.390490	0.400253	205.502004
4694.000000	0.334608	0.335106	203.230499
4695.000000	0.422080	0.422822	312.457004
4696.000000	0.454990	0.451397	214.274150
4697.000000	0.434293	0.404008	324.503875
4698.000000	0.477448	0.464669	474.325997
4699.000000	0.467297	0.492889	270.965602
4700.000000	0.480358	0.468901	573.648707
4701.000000	0.538477	0.549892	590.717603
4702.000000	0.546356	0.559217	374.640046
4703.000000	0.521304	0.521873	690.207461
4704.000000	0.540696	0.533953	552.699997
4705.000000	0.550790	0.533965	500.317766
4706.000000	0.563206	0.535278	801.930289
4707.000000	0.604845	0.596330	506.745361
4708.000000	0.612775	0.565577	646.317773
4709.000000	0.607778	0.650012	787.827224
4710.000000	0.562155	0.611867	404.683479
4711.000000	0.620933	0.531961	586.706928
4712.000000	0.555236	0.610664	663.499965
4713.000000	0.612624	0.686312	307.085969
4714.000000	0.535959	0.518258	706.744603
4715.000000	0.655724	0.729518	690.899308
4716.000000	0.603872	0.613828	481.758286
4717.000000	0.606162	0.658899	876.097061
4718.000000	0.583200	0.610823	685.251075
4719.000000	0.683152	0.672990	738.664466
4720.000000	0.675326	0.754171	1060.182666
4721.000000	0.620938	0.678118	614.175397
4722.000000	0.587536	0.553698	860.583500
4723.000000	0.640704	0.668147	1058.201957
4724.000000	0.628601	0.601869	425.442258
4725.000000	0.631017	0.633501	873.169443
4726.000000	0.596567	0.619068	849.463413
4727.000000	0.545219	0.499730	498.709768
4728.000000	0.573164	0.530270	805.759843
4729.000000	0.565488	0.566546	566.069594
4730.000000	0.573722	0.589642	489.049808
4731.000000	0.550784	0.559638	666.923674
4732.000000	0.582087	0.526097	432.139255
4733.000000	0.574724	0.653210	527.163998
4734.000000	0.635501	0.624708	666.072650
4735.000000	0.537092	0.530651	301.481815
4736.000000	0.591720	0.593901	590.664043
4737.000000	0.574275	0.586722	647.574969
4738.000000	0.526608	0.537783	266.149288
4739.000000	0.446910	0.496963	576.070155
4740.000000	0.527949	0.507601	449.291282
4741.000000	0.410523	0.463551	347.818612
4742.000000	0.460766	0.459555	614.660665
4743.000000	0.504485	0.483299	409.988306
4744.000000	0.476369	0.412847	447.445584
4745.000000	0.432114	0.452103	703.196350
4746.000000	0.446153	0.440635	395.662779
4747.000000	0.398150	0.421979	491.139102
4748.000000	0.366209	0.382447	588.597467
4749.000000	0.425431	0.385386	231.229509
4750.000000	0.366479	0.365680	473.583536
4751.000000	0.395048	0.417153	404.432344
4752.000000	0.383115	0.391236	199.817866
4753.000000	0.421886	0.405685	334.081385
4754.000000	0.371435	0.373268	230.004802
4755.000000	0.380661	0.371395	165.660793
4756.000000	0.342118	0.341167	210.916585
4757.000000	0.371201	0.320370	144.715080
4758.000000	0.361241	0.327172	172.231623
4759.000000	0.331431	0.344811	245.566616
4760.000000	0.352724	0.322568	132.914824
4761.000000	0.294110	0.286939	199.698064
4762.000000	0.335378	0.343119	208.798335
4763.000000	0.268725	0.271867	114.155550
4764.000000	0.348500	0.329294	256.461506
4765.000000	0.287757	0.323918	245.461424
4766.000000	0.345908	0.344111	160.864068
4767.000000	0.286736	0.282146	351.784785
4768.000000	0.330110	0.363306	273.023886
4769.000000	0.300359	0.291670	303.797996
4770.000000	0.292149	0.284630	450.869570
4771.000000	0.295326	0.286609	259.980272
4772.000000	0.282402	0.263854	354.997930
4773.000000	0.282311	0.251086	373.925061
4774.000000	0.255211	0.260062	152.061525
4775.000000	0.259741	0.255070	292.667378
4776.000000	0.285329	0.264979	265.985708
4777.000000	0.292590	0.307209	132.922363
4778.000000	0.260015	0.272523	205.530511
4779.000000	0.255252	0.254855	154.214829
4780.000000	0.279554	0.313261	107.287562
4781.000000	0.241543	0.255861	179.978217
4782.000000	0.292452	0.261544	117.968116
4783.000000	0.292963	0.283239	132.686088
4784.000000	0.303002	0.341517	129.111222
4785.000000	0.335594	0.308845	65.811520
4786.000000	0.323231	0.347773	90.520919
4787.000000	0.366721	0.332258	108.914319
4788.000000	0.321592	0.296952	56.778875
4789.000000	0.309109	0.290279	154.197178
4790.000000	0.320563	0.337706	146.118518
4791.000000	0.337703	0.327822	104.871807
4792.000000	0.302466	0.282687	225.080594
4793.000000	0.352420	0.361377	166.554830
4794.000000	0.320941	0.322886	156.281856
4795.000000	0.315169	0.292247	240.830184
4796.000000	0.313345	0.314561	139.387968
4797.000000	0.279599	0.239517	174.887346
4798.000000	0.303733	0.283357	211.277180
4799.000000	0.352041	0.377866	89.881041
4800.000000	0.357497	0.325387	225.939106
4801.000000	0.343027	0.376419	266.335586
4802.000000	0.340435	0.344853	210.223966
4803.000000	0.258786	0.328777	466.158429
4804.000000	0.360907	0.343962	450.688475
4805.000000	0.337787	0.347750	407.117570
4806.000000	0.365984	0.351312	746.788586
4807.000000	0.354773	0.366937	481.130392
4808.000000	0.367457	0.350402	685.877994
4809.000000	0.385605	0.391876	846.356040
4810.000000	0.436185	0.424458	449.705404
4811.000000	0.424327	0.425685	815.777430
4812.000000	0.485850	0.472142	896.254394
4813.000000	0.487988	0.471650	433.772138
4814.000000	0.475556	0.462076	920.932639
4815.000000	0.451577	0.454795	802.400205
4816.000000	0.517309	0.492785	491.369015
4817.000000	0.404038	0.394831	877.110768
4818.000000	0.469050	0.444907	723.433286
4819.000000	0.521350	0.526375	681.915829
4820.000000	0.513527	0.462375	979.522866
4821.000000	0.503387	0.504737	583.322099
4822.000000	0.523281	0.517639	856.606458
4823.000000	0.540280	0.604108	1062.179661
4824.000000	0.569711	0.570445	527.512047
4825.000000	0.608375	0.627516	1163.961633
4826.000000	0.590887	0.584845	1178.460471
4827.000000	0.565650	0.565660	617.368605
4828.000000	0.596357	0.533133	1463.874809
4829.000000	0.655971	0.654088	1143.966858
4830.000000	0.750012	0.692425	1085.174054
4831.000000	0.667164	0.628109	1659.562044
4832.000000	0.673711	0.679451	1237.541036
4833.000000	0.684682	0.785179	1421.128338
4834.000000	0.833090	0.879150	1825.909290
4835.000000	0.763798	0.823245	1022.576252
4836.000000	0.828547	0.822696	1671.584724
4837.000000	0.890682	0.926579	1819.529752
4838.000000	0.845244	0.762695	796.313685
4839.000000	0.856699	0.825375	1812.517681
4840.000000	0.948771	0.961650	1372.858099
4841.000000	1.210467	1.128947	897.379002
4842.000000	1.221093	1.160557	1590.703025
4843.000000	1.276144	1.134021	1025.933145
4844.000000	1.168690	1.198772	931.920505
4845.000000	1.476633	1.454286	1347.614791
4846.000000	1.367232	1.268914	637.075620
4847.000000	1.474840	1.222364	879.931462
4848.000000	1.319522	1.213189	1081.685302
4849.000000	1.500068	1.620753	451.655504
4850.000000	1.486169	1.471707	1095.988785
4851.000000	1.949807	2.086517	1137.876607
4852.000000	1.809413	1.726372	593.592416
4853.000000	1.611803	1.558865	1288.320727
4854.000000	1.728754	1.982169	1090.900153
4855.000000	1.919691	1.668413	1000.243483
4856.000000	1.897520	1.984361	1413.230102
4857.000000	2.273831	1.937017	982.082624
4858.000000	2.129982	2.055438	1126.037333
4859.000000	2.205887	2.123521	1456.556660
4860.000000	2.192505	2.279638	891.563422
4861.000000	2.470958	2.411019	1288.131109
4862.000000	2.419434	2.427718	1356.456039
4863.000000	2.741913	2.645455	649.195200
4864.000000	2.798408	2.885781	1523.357431
4865.000000	2.513122	2.444153	1314.569287
4866.000000	2.489830	2.265918	1012.798865
4867.000000	2.995264	2.912290	1842.126653
4868.000000	3.259275	2.882279	1096.108393
4869.000000	3.277223	3.402232	1374.121091
4870.000000	3.466648	3.349034	2285.596318
4871.000000	3.433912	3.871624	1107.593000
4872.000000	3.635449	3.580395	1556.876129
4873.000000	3.377250	3.213295	2127.520944
4874.000000	4.392093	4.634861	960.683430
4875.000000	3.664808	3.784693	2157.359508
4876.000000	3.263318	3.443568	1765.496378
4877.000000	4.063806	3.895257	1093.099004
4878.000000	3.557237	3.758894	1928.700642
4879.000000	4.503135	4.580688	1670.931217
4880.000000	4.418302	4.042814	1516.352428
4881.000000	3.744006	3.661325	2092.318322
4882.000000	4.128162	4.549919	1298.237151
4883.000000	3.623812	3.610022	1456.400753
4884.000000	3.562666	3.896927	2215.914603
4885.000000	3.661063	3.592467	947.616783
4886.000000	4.166232	4.268915	1603.577672
4887.000000	3.928697	4.455087	1339.776973
4888.000000	4.482050	4.238244	655.379152
4889.000000	4.245462	4.007205	1250.088419
4890.000000	5.749789	6.038253	1360.451198
4891.000000	5.062521	5.441586	986.880785
4892.000000	4.468579	4.815057	1531.760628
4893.000000	4.996617	5.852645	1148.815284
4894.000000	5.025331	5.119513	1206.740385
4895.000000	5.094756	4.895734	1596.501663
4896.000000	4.936626	5.335888	1052.614120
4897.000000	6.675378	6.923049	1716.187533
4898.000000	7.097037	7.208757	2145.307936
4899.000000	5.895688	5.591568	988.827562
4900.000000	5.543260	5.216219	1867.244352
4901.000000	5.699498	5.333200	1756.361082
4902.000000	6.487793	6.572764	923.804091
4903.000000	6.397675	6.627701	1790.000893
4904.000000	6.391522	7.048078	1160.081540
4905.000000	6.223422	5.735009	942.757170
4906.000000	5.912614	6.171445	1681.869644
4907.000000	5.974925	5.991775	975.806697
4908.000000	5.830894	5.397127	1163.942157
4909.000000	6.315660	6.160356	1471.721625
4910.000000	6.013967	6.022833	730.933734
4911.000000	5.587207	5.462675	1227.148007
4912.000000	4.675278	5.494095	1309.507201
4913.000000	5.532427	5.162449	642.333966
4914.000000	4.601446	5.349192	1318.581075
4915.000000	4.405769	4.809017	1193.391760
4916.000000	4.252661	4.062468	835.665550
4917.000000	4.290714	4.074208	1333.533321
4918.000000	4.857149	4.740622	1310.955828
4919.000000	3.477078	3.430754	1490.070905
4920.000000	3.812909	3.938871	1905.892888
4921.000000	3.946619	3.715718	1142.539863
4922.000000	3.613142	3.539217	1507.536493
4923.000000	3.159732	3.154146	1863.748754
4924.000000	2.825762	2.797706	917.814293
4925.000000	2.939732	2.911755	1982.631383
4926.000000	2.672754	2.546986	1829.095355
4927.000000	2.315076	1.911851	1113.166780
4928.000000	2.410059	2.413242	1759.452873
4929.000000	2.069245	1.988252	1467.477700
4930.000000	2.227388	2.151287	1110.946738
4931.000000	2.008264	2.017798	1704.348315
4932.000000	1.772540	1.700500	1089.294636
4933.000000	1.356898	1.486465	1223.874596
4934.000000	1.276782	1.276963	1558.748035
4935.000000	1.452032	1.480140	861.992010
4936.000000	1.339009	1.251153	1353.531612
4937.000000	1.345053	1.409401	1487.494285
4938.000000	1.185156	1.298109	719.078162
4939.000000	0.681999	0.765039	1471.910693
4940.000000	0.818868	0.811277	1196.003128
4941.000000	0.754177	0.779300	818.839048
4942.000000	0.870340	0.949928	1454.012783
4943.000000	0.701002	0.696090	1111.766863
4944.000000	0.627711	0.606348	1022.930990
4945.000000	0.636979	0.609315	1616.487942
4946.000000	0.555870	0.472779	896.694618
4947.000000	0.578387	0.606440	1258.894548
4948.000000	0.534573	0.499253	1450.131491
4949.000000	0.631715	0.582405	569.225513
4950.000000	0.574325	0.566700	1339.647491
4951.000000	0.461899	0.447090	1310.733974
4952.000000	0.443763	0.430111	760.467393
4953.000000	0.435459	0.439026	1393.058204
4954.000000	0.404830	0.396563	1185.542308
4955.000000	0.372262	0.353763	847.868881
4956.000000	0.349916	0.350051	1284.040489
4957.000000	0.409161	0.451230	819.813494
4958.000000	0.373069	0.349524	962.400504
4959.000000	0.397533	0.396535	1209.592615
4960.000000	0.315827	0.331279	625.367985
4961.000000	0.355540	0.344662	1072.122109
4962.000000	0.297492	0.286240	1171.328848
4963.000000	0.354689	0.395388	530.306695
4964.000000	0.303807	0.297096	1203.133408
4965.000000	0.289281	0.296895	1009.703138
4966.000000	0.275911	0.289866	651.132539
4967.000000	0.256175	0.256523	1102.279174
4968.000000	0.275341	0.272726	726.422804
4969.000000	0.279328	0.297434	749.009606


# 
# Scan parameters: power 16.000000 dBm, bandwidth 1.500000 Hz
# Frequency [MHz]	avg noise	std noise	peak value
3850.000000	1.737553	1.620965	1115.755906
3851.000000	0.955757	0.952353	1419.651736
3852.000000	1.104408	1.100239	779.108336
3853.000000	1.160342	1.392866	1636.956219
3854.000000	1.216011	1.104024	1430.655981
3855.000000	1.073802	1.134505	1240.497854
3856.000000	0.992736	0.955879	1993.026177
3857.000000	0.984453	0.989704	1482.220153
3858.000000	0.878244	0.744212	1682.360069
3859.000000	0.699760	0.714623	2230.284337
3860.000000	0.855006	0.938535	1254.569500
3861.000000	0.700636	0.724641	2303.769408
3862.000000	0.700393	0.640760	2675.070373
3863.000000	0.638905	0.618557	1253.826729
3864.000000	0.583229	0.577008	2815.838572
3865.000000	0.663081	0.680538	2672.762577
3866.000000	0.533416	0.510698	1827.123283
3867.000000	0.551415	0.563497	3220.471598
3868.000000	0.526668	0.514199	2249.443551
3869.000000	0.427988	0.477167	2161.907814
3870.000000	0.441533	0.447611	3128.658963
3871.000000	0.432093	0.455103	1692.061048
3872.000000	0.420700	0.398399	2243.691148
3873.000000	0.397106	0.385596	2674.418467
3874.000000	0.391705	0.388232	1126.106244
3875.000000	0.417958	0.425928	2414.926441
3876.000000	0.447271	0.437561	2222.232562
3877.000000	0.435934	0.494459	1306.798043
3878.000000	0.448504	0.412921	2536.741754
3879.000000	0.558705	0.583078	1991.523474
3880.000000	0.493559	0.499689	1643.745507
3881.000000	0.474007	0.480483	2311.654305
3882.000000	0.500197	0.513774	1503.494162
3883.000000	0.609527	0.623848	1739.345241
3884.000000	0.494326	0.468227	2108.933745
3885.000000	0.698325	0.720106	1163.373854
3886.000000	0.602470	0.626246	1864.657401
3887.000000	0.689612	0.736314	1910.975590
3888.000000	0.690921	0.696123	897.273883
3889.000000	0.556221	0.522437	2040.999160
3890.000000	0.503162	0.538210	1768.014739
3891.000000	0.587555	0.665199	1039.975505
3892.000000	0.612318	0.582140	1831.923560
3893.000000	0.629026	0.611853	1113.205127
3894.000000	0.562392	0.560618	1099.521516
3895.000000	0.686981	0.689091	1439.876674
3896.000000	0.795884	0.790771	794.111134
3897.000000	0.748139	0.746357	1202.753262
3898.000000	1.147413	1.058179	1372.930852
3899.000000	1.082344	1.118015	735.000789
3900.000000	1.285391	1.218389	1542.728881
3901.000000	1.452192	1.489622	1636.311912
3902.000000	1.708794	1.920226	1006.122870
3903.000000	1.715110	1.676523	2100.044199
3904.000000	1.891502	1.717644	2076.094528
3905.000000	2.226582	2.282559	1776.765848
3906.000000	2.215421	2.303251	2634.471714
3907.000000	2.615210	2.591315	1909.600650
3908.000000	2.440150	2.559156	2238.399735
3909.000000	2.539721	2.409844	2572.475199
3910.000000	2.596464	2.904425	1447.635891
3911.000000	2.755749	2.722683	2106.261356
3912.000000	3.057035	3.342535	2213.679428
3913.000000	2.855798	2.622199	867.330903
3914.000000	2.849162	2.875938	2027.987977
3915.000000	2.867196	3.557907	1514.791401
3916.000000	2.767295	2.864420	1048.847713
3917.000000	2.656078	2.677597	1787.513825
3918.000000	2.937815	2.798434	1375.836709
3919.000000	2.950604	3.415939	1222.484285
3920.000000	2.462851	2.473686	2100.282734
3921.000000	2.802146	2.883594	1094.537823
3922.000000	3.039790	3.476645	1612.747711
3923.000000	2.848972	3.021699	1872.191073
3924.000000	3.398008	3.123191	964.404647
3925.000000	3.392456	3.439076	2096.350346
3926.000000	3.139802	3.326309	1930.256208
3927.000000	3.656783	3.546741	1146.719336
3928.000000	3.146326	3.210961	2141.280866
3929.000000	3.521310	3.487346	2248.853813
3930.000000	4.138161	4.017803	1912.732345
3931.000000	4.063730	4.760679	3213.589822
3932.000000	3.731882	3.547855	2352.109994
3933.000000	4.207265	4.370001	2901.522248
3934.000000	4.545200	4.638903	4294.247478
3935.000000	4.253973	4.310318	2130.608810
3936.000000	4.909810	4.582382	4123.884938
3937.000000	5.102606	4.884342	4895.408106
3938.000000	5.916356	5.605130	2265.475651
3939.000000	4.887593	4.921386	4582.439350
3940.000000	5.854720	5.774299	3714.277457
3941.000000	4.598110	5.168424	2953.262111
3942.000000	5.038981	5.118916	4544.153869
3943.000000	5.823811	5.235090	2992.211477
3944.000000	5.569053	5.480982	2862.794232
3945.000000	5.498463	5.360063	4435.232778
3946.000000	5.141793	6.066931	2070.418031
3947.000000	5.188677	5.310338	2612.556117
3948.000000	5.115300	4.769657	3416.941071
3949.000000	5.312457	5.397304	1360.261115
3950.000000	4.804162	5.092490	3035.546539
3951.000000	5.058287	4.656143	2860.032544
3952.000000	5.046924	5.200317	1517.224836
3953.000000	5.522305	5.548866	3007.939249
3954.000000	6.316529	6.274913	2204.839492
3955.000000	4.995025	5.036344	2371.647132
3956.000000	4.651465	4.475152	2739.706373
3957.000000	5.707192	6.269216	1989.722435
3958.000000	5.201198	5.195079	2605.663285
3959.000000	4.460491	4.547766	2801.539805
3960.000000	5.088824	4.835645	1451.837387
3961.000000	4.692755	4.556248	2433.433966
3962.000000	3.986572	4.282285	2946.230191
3963.000000	4.500344	4.447292	1428.412503
3964.000000	4.456995	4.412678	2928.513010
3965.000000	5.113047	5.476227	2975.254642
3966.000000	3.732227	3.804445	1745.809455
3967.000000	3.403828	3.231975	3912.075427
3968.000000	3.308516	3.502574	2477.098237
3969.000000	3.158340	3.247459	2388.843196
3970.000000	3.233549	3.047143	3354.851619
3971.000000	2.754190	2.919490	1901.664102
3972.000000	2.740604	2.498431	2680.994753
3973.000000	2.731700	3.008298	3185.891654
3974.000000	2.687149	2.650645	1339.555049
3975.000000	2.043325	1.981141	2630.126260
3976.000000	2.534830	2.546205	2499.978176
3977.000000	2.030650	1.982331	1483.594616
3978.000000	2.332207	2.335889	2656.151122
3979.000000	2.128592	2.371613	2251.459548
3980.000000	2.283465	2.035115	1676.180726
3981.000000	1.983731	1.988857	2756.384495
3982.000000	2.008032	1.859117	1714.095113
3983.000000	1.861940	1.942477	2184.004800
3984.000000	1.584279	1.806197	2722.216436
3985.000000	1.719141	1.770010	1537.603053
3986.000000	1.620430	1.575638	2509.261390
3987.000000	1.334833	1.259245	2635.697606
3988.000000	1.408734	1.416822	1090.007362
3989.000000	1.291584	1.211415	2531.662500
3990.000000	1.300677	1.387740	2230.207090
3991.000000	1.390039	1.468824	1578.244921
3992.000000	1.179017	1.123104	2617.060129
3993.000000	1.305727	1.297172	1913.180493
3994.000000	1.324143	1.356021	1912.171825
3995.000000	1.349537	1.413460	2791.113026
3996.000000	1.236210	1.282576	1553.731383
3997.000000	0.991605	0.851572	2171.171089
3998.000000	0.982634	0.917196	2489.058024
3999.000000	0.853389	0.897907	1078.809797
4000.000000	1.073906	1.107795	2157.821009
4001.000000	0.946854	0.992831	1982.738498
4002.000000	0.922185	0.943446	1133.049439
4003.000000	0.911132	0.920335	1832.895975
