

# Beam is probing the groundplane
# Scan parameters: power 19.000000 dBm, bandwidth 1.500000 Hz
# Frequency [MHz]	avg noise	std noise	peak value
3851.000000	1.974004	2.018238	502.094011
3852.000000	2.175581	2.148397	316.969709
3853.000000	2.104053	2.216010	642.122443
3854.000000	1.954723	2.211111	500.650702
3855.000000	1.785680	1.954417	393.628676
3856.000000	1.858682	1.577946	671.763640
3857.000000	1.920106	1.957982	473.938429
3858.000000	1.892885	2.016287	539.204179
3859.000000	2.272502	2.236633	759.626507
3860.000000	1.990281	1.863144	640.666808
3861.000000	1.884190	1.915435	854.363736
3862.000000	2.113019	2.057015	882.959032
3863.000000	2.031646	2.086622	431.229789
3864.000000	1.850321	1.853533	932.843156
3865.000000	2.152501	2.226644	754.342129
3866.000000	1.904043	1.927866	543.238777
3867.000000	1.972616	1.844002	923.112158
3868.000000	2.180800	2.093203	636.046328
3869.000000	2.802828	2.799693	611.577970
3870.000000	2.042132	2.001112	839.652181
3871.000000	5.045731	5.295818	451.100233
3872.000000	1.850942	2.021024	718.759009
3873.000000	1.890162	1.869056	708.418213
3874.000000	2.245255	2.426845	432.336375
3875.000000	2.128136	2.211672	867.063334
3876.000000	2.014711	2.287191	926.003762
3877.000000	1.981722	1.884883	512.727524
3878.000000	2.222975	2.016879	1034.158342
3879.000000	2.060631	1.966034	874.323213
3880.000000	2.269062	2.188037	650.970087
3881.000000	2.093322	2.163612	1109.187814
3882.000000	1.822373	2.468083	855.239742
3883.000000	2.370992	2.357789	1025.860091
3884.000000	2.073559	2.101732	1190.035752
3885.000000	2.198005	1.965919	638.820188
3886.000000	2.031341	1.968516	1088.060969
3887.000000	2.392750	2.504057	1208.569636
3888.000000	2.225439	2.381299	554.835659
3889.000000	2.257284	2.203529	1272.175459
3890.000000	2.176944	2.096968	1183.414243
3891.000000	2.114427	2.014783	770.317669
3892.000000	2.098179	2.067468	1282.253858
3893.000000	2.558559	2.271394	1006.835282
3894.000000	2.392678	2.395858	1112.853165
3895.000000	2.366516	2.245287	1497.897468
3896.000000	2.319272	2.199764	825.005127
3897.000000	2.354184	2.159262	1177.330821
3898.000000	2.096170	2.077959	1485.920139
3899.000000	2.237477	2.305015	724.961460
3900.000000	2.498116	2.287527	1439.938070
3901.000000	2.231512	2.107273	1315.062337
3902.000000	2.510314	2.255966	739.784275
3903.000000	2.256738	2.849233	1216.511562
3904.000000	2.798392	3.046197	1018.618052
3905.000000	2.389293	2.293919	835.521759
3906.000000	2.178562	1.883245	1147.450312
3907.000000	2.329244	2.341877	983.787461
3908.000000	2.235322	2.413820	1010.245640
3909.000000	2.849173	3.036590	1316.500666
3910.000000	2.751211	2.731241	704.675242
3911.000000	2.825770	2.921408	1020.202230
3912.000000	2.524667	2.613509	1144.372446
3913.000000	2.422991	2.497345	474.201847
3914.000000	2.467709	2.650102	1089.921981
3915.000000	2.597513	2.390310	996.887750
3916.000000	2.577831	2.485311	772.418337
3917.000000	2.293749	2.366207	1102.929694
3918.000000	2.493966	2.610627	848.779784
3919.000000	2.376026	2.622095	839.039696
3920.000000	2.540325	2.441353	1151.550068
3921.000000	2.549208	2.361544	661.570395
3922.000000	2.564005	2.792418	845.017661
3923.000000	2.682080	2.476076	1010.703102
3924.000000	2.256424	1.930080	408.293462
3925.000000	2.384739	2.226138	800.961510
3926.000000	2.539744	2.903146	724.703614
3927.000000	2.411416	2.371261	439.886647
3928.000000	2.933144	3.093251	812.172149
3929.000000	2.648807	2.492014	551.091798
3930.000000	2.633817	2.914298	481.874638
3931.000000	2.643850	2.971792	651.296401
3932.000000	2.732178	2.654443	375.640712
3933.000000	3.219272	2.854044	344.153285
3934.000000	2.637794	2.677779	478.378551
3935.000000	3.033357	2.740614	168.721894
3936.000000	2.689358	2.730410	225.418782
3937.000000	3.013334	3.075011	206.402555
3938.000000	2.656797	2.461860	108.079350
3939.000000	2.960392	3.192405	149.264073
3940.000000	2.919047	2.423852	137.590071
3941.000000	2.799752	2.794291	152.751637
3942.000000	3.139794	3.131392	258.740970
3943.000000	2.732628	2.942113	266.033265
3944.000000	2.568606	2.644812	199.830255
3945.000000	2.757936	2.605689	465.745399
3946.000000	2.784418	2.512048	225.685999
3947.000000	2.731269	2.483891	539.784226
3948.000000	2.936099	3.002342	828.784301
3949.000000	2.593874	2.405331	377.948876
3950.000000	2.714809	2.873316	799.383556
3951.000000	2.509026	2.389864	929.183082
3952.000000	2.714363	2.816087	607.452131
3953.000000	2.531961	2.570733	953.763020
3954.000000	2.852653	2.989082	1096.989480
3955.000000	2.668615	2.707371	919.100270
3956.000000	2.604856	2.545983	1283.959699
3957.000000	2.495020	2.374247	872.620024
3958.000000	2.657424	2.646220	1146.499914
3959.000000	2.521052	2.465790	1281.882659
3960.000000	2.381809	2.356585	699.354062
3961.000000	2.325152	2.354225	930.110936
3962.000000	3.077396	3.052760	1165.895287
3963.000000	2.684446	2.459595	512.619181
3964.000000	2.577906	2.488980	1140.734804
3965.000000	2.342738	2.526145	1243.034791
3966.000000	2.626177	2.561683	766.258547
3967.000000	2.392186	2.328407	1513.934867
3968.000000	2.328131	2.656285	1049.330055
3969.000000	2.515879	2.283324	1171.717396
3970.000000	2.782550	2.739603	1700.451944
3971.000000	2.363163	2.585919	1175.874776
3972.000000	2.260691	2.187359	1174.442571
3973.000000	2.383095	2.531078	1654.231494
3974.000000	2.276773	2.255771	585.799801
3975.000000	2.193943	2.237483	1345.363095
3976.000000	2.355504	2.221929	1219.490388
3977.000000	2.324988	2.721339	727.673001
3978.000000	2.199993	2.207369	1247.620175
3979.000000	2.255965	2.427165	985.014107
3980.000000	1.949125	1.973471	858.290775
3981.000000	1.893475	2.167744	1092.116549
3982.000000	2.417463	2.465068	927.545843
3983.000000	2.082204	2.200232	953.890391
3984.000000	2.315225	2.260026	1504.571581
3985.000000	2.279572	2.201435	795.075499
3986.000000	2.276704	2.381224	1382.607344
3987.000000	2.265113	2.253816	1765.060302
3988.000000	2.040031	1.890104	857.955658
3989.000000	2.334085	2.454106	2171.624041
3990.000000	2.069336	1.825033	2088.740504
3991.000000	2.029841	2.163000	1557.759543
3992.000000	1.835120	1.823593	2750.043085
3993.000000	2.126148	2.198565	2173.181401
3994.000000	2.145073	1.893220	2275.374301
3995.000000	2.040766	1.948478	3512.332757
3996.000000	1.913263	1.796150	1977.121568
3997.000000	2.159755	1.864236	3057.351067
3998.000000	1.942558	2.057725	3785.778450
3999.000000	1.993953	2.035774	1710.715467
4000.000000	2.048308	2.194245	3506.926837
4001.000000	1.802911	1.636985	3774.504580
4002.000000	1.877199	1.797089	2363.640139
4003.000000	2.010764	1.974125	4052.338388
4004.000000	2.063455	2.207650	3512.395032
4005.000000	1.739681	1.775045	2784.720222
4006.000000	1.863750	1.865947	4370.015381
4007.000000	1.919384	1.821946	2525.421669
4008.000000	1.883221	1.858967	2909.430502
4009.000000	1.943882	1.924857	3530.267486
4010.000000	2.015815	1.860234	1727.313820
4011.000000	1.770855	1.763220	2671.567884
4012.000000	1.539756	1.425621	2728.254334
4013.000000	1.908742	2.037500	1330.452109
4014.000000	1.497192	1.620419	2516.011506
4015.000000	1.925397	1.782929	2432.554306
4016.000000	1.826705	1.974677	1472.156302
4017.000000	1.759283	1.744532	2590.764562
4018.000000	1.702217	1.692916	1849.673312
4019.000000	1.831330	1.895172	1737.808371
4020.000000	1.609270	1.478187	2338.657436
4021.000000	1.888012	1.912197	1239.460042
4022.000000	1.849098	1.861946	1570.679870
4023.000000	1.354318	1.369566	1859.471407
4024.000000	1.595420	1.300996	796.330928
4025.000000	1.727300	1.833030	1769.945461
4026.000000	1.630122	1.654705	1749.142370
4027.000000	1.680718	1.823923	998.326519
4028.000000	1.576567	1.758288	2316.993467
4029.000000	1.523151	1.590411	1913.566772
4030.000000	1.637916	1.568646	1625.372456
4031.000000	1.737848	1.900434	2768.392895
4032.000000	1.731831	1.834106	1857.254055
4033.000000	1.575750	1.522941	1910.784450
4034.000000	1.667491	1.696368	2387.870355
4035.000000	1.446538	1.526352	1198.330794
4036.000000	1.497186	1.386498	1771.194082
4037.000000	1.724952	1.840013	1842.774915
4038.000000	1.389532	1.453381	768.249890
4039.000000	1.632029	1.637164	1604.480861
4040.000000	1.482575	1.541865	1215.216390
4041.000000	1.652899	1.840934	802.267186
4042.000000	1.515365	1.511769	1500.500925
4043.000000	1.445718	1.547006	962.010742
4044.000000	1.617775	1.619347	1014.478828
4045.000000	1.481598	1.583300	1264.040527
4046.000000	1.684662	1.497921	754.255435
4047.000000	1.264698	1.274234	1016.891109
4048.000000	1.488924	1.399949	1129.876246
4049.000000	1.448046	1.427605	488.848460
4050.000000	1.588681	1.616928	1204.296082
4051.000000	1.652737	1.760294	997.106739
4052.000000	1.363241	1.368492	473.340747
4053.000000	1.451984	1.470531	1044.738783
4054.000000	1.360159	1.218831	708.376679
4055.000000	1.497529	1.615403	550.546654
4056.000000	1.248904	1.237425	691.927094
4057.000000	1.348801	1.595277	498.906088
4058.000000	1.311591	1.465742	531.548175
4059.000000	1.441170	1.483804	616.838568
4060.000000	1.378832	1.329213	357.437845
4061.000000	1.465165	1.521839	459.817081
4062.000000	1.335684	1.345634	539.618113
4063.000000	1.354866	1.410688	255.531659
4064.000000	1.390439	1.532387	579.371014
4065.000000	1.347090	1.201395	466.926818
4066.000000	1.285663	1.272904	279.878715
4067.000000	1.308057	1.228375	489.458718
4068.000000	1.369692	1.276051	285.401404
4069.000000	1.420594	1.439745	330.713756
4070.000000	1.245671	1.298889	340.722685
4071.000000	1.294072	1.288721	225.342960
4072.000000	1.419351	1.431339	224.651904
4073.000000	1.299819	1.395564	250.670773
4074.000000	1.331277	1.189503	119.920979
4075.000000	1.380540	1.219858	274.575355
4076.000000	1.300357	1.286415	269.443805
4077.000000	1.368654	1.381019	115.521233
4078.000000	1.178649	1.218362	276.582109
4079.000000	1.227676	1.184598	233.475116
4080.000000	1.292882	1.226312	256.307756
4081.000000	1.302544	1.364682	385.930597
4082.000000	1.176425	1.039667	261.316651
4083.000000	1.045310	0.868983	410.485798
4084.000000	1.290468	1.196729	622.231577
4085.000000	1.206011	1.135024	267.340550
4086.000000	1.158295	1.143303	499.197219
4087.000000	1.267540	1.293947	435.289599
4088.000000	1.152495	1.102332	268.909547
4089.000000	1.181709	1.129774	568.339662
4090.000000	1.273922	1.259974	495.193706
4091.000000	1.123524	1.134903	333.210371
4092.000000	1.154625	1.130837	713.722717
4093.000000	1.167650	1.075584	507.627464
4094.000000	1.183250	1.140525	645.204567
4095.000000	0.994326	0.937319	926.157816
4096.000000	1.084565	1.026610	618.202665
4097.000000	1.029884	1.123061	855.953697
4098.000000	1.088879	1.126885	1143.334380
4099.000000	1.089733	1.160641	577.124372
4100.000000	1.356436	1.273066	1321.977504
4101.000000	1.070248	0.970047	1194.750974
4102.000000	1.305594	1.231300	723.406859
4103.000000	1.142463	1.120328	1252.643814
4104.000000	1.141383	1.029302	1045.358291
4105.000000	1.070625	0.938313	827.316043
4106.000000	1.225429	1.277093	1159.705045
4107.000000	1.167133	1.153961	812.572448
4108.000000	1.237920	1.126726	919.294096
4109.000000	0.964297	0.940651	1060.376516
4110.000000	1.000887	1.016407	488.256769
4111.000000	1.041235	0.977870	737.615457
4112.000000	1.068656	0.987168	919.675538
4113.000000	1.185780	1.141758	355.235118
4114.000000	1.155701	1.180133	810.254133
4115.000000	1.024688	1.013505	764.361760
4116.000000	1.037036	1.076757	531.285878
4117.000000	1.063170	1.086780	951.767377
4118.000000	1.095363	1.040270	617.802698
4119.000000	1.094365	1.148132	738.937171
4120.000000	1.031582	1.021708	893.862340
4121.000000	1.020596	0.984426	515.441685
4122.000000	1.257874	1.204426	599.545592
4123.000000	1.000038	0.891998	796.480047
4124.000000	1.030311	1.029520	325.070774
4125.000000	1.060811	1.145784	638.699584
4126.000000	1.042442	0.937981	672.412997
4127.000000	1.088240	1.096879	375.870437
4128.000000	1.220183	1.307324	735.880601
4129.000000	0.972047	1.044439	532.797011
4130.000000	1.100630	1.042848	432.849082
4131.000000	1.086873	0.963882	700.277282
4132.000000	1.198938	1.033509	422.511770
4133.000000	1.181928	1.216936	548.139735
4134.000000	1.201023	1.262788	628.997357
4135.000000	1.046917	0.955415	374.342198
4136.000000	1.044606	1.047796	622.880573
4137.000000	1.171294	1.074413	666.502198
4138.000000	0.980445	0.989561	295.935683
4139.000000	0.974452	0.957803	625.169801
4140.000000	0.982282	1.044283	580.745837
4141.000000	1.175826	1.144565	395.589420
4142.000000	1.033099	1.059930	590.823033
4143.000000	1.237750	1.208893	425.429765
4144.000000	1.138536	1.319086	406.174048
4145.000000	0.935043	0.816690	599.886220
4146.000000	1.077931	1.139522	304.481492
4147.000000	1.093653	1.146985	355.644944
4148.000000	1.209274	1.414012	362.168922
4149.000000	1.139558	1.137044	130.140407
4150.000000	1.165856	1.110117	301.871399
4151.000000	1.139320	1.246034	237.863272
4152.000000	1.033672	1.000893	143.121858
4153.000000	1.055904	0.976895	242.782603
4154.000000	0.989969	1.081286	216.258821
4155.000000	1.035117	1.002203	181.724707
4156.000000	1.145474	1.080808	322.752683
4157.000000	1.225804	1.193804	199.986667
4158.000000	1.063750	0.914163	190.557466
4159.000000	1.060645	1.028453	169.969788
4160.000000	1.028265	1.003044	145.443245
4161.000000	1.170328	1.173689	182.341158
4162.000000	1.314371	1.296079	190.006601
4163.000000	1.012221	0.949783	71.672447
4164.000000	1.074040	1.089719	153.996184
4165.000000	1.117165	1.085840	117.459492
4166.000000	0.934057	0.981666	73.335919
4167.000000	1.065045	1.114014	137.176504
4168.000000	1.137075	1.095844	79.035225
4169.000000	1.142022	1.094186	79.209792
4170.000000	1.111818	1.076133	120.858619
4171.000000	1.092554	1.090023	49.475845
4172.000000	1.171511	1.177324	46.965742
4173.000000	1.014528	1.014953	93.237743
4174.000000	0.880934	0.901543	25.819846
4175.000000	0.975564	1.080836	59.764059
4176.000000	1.091771	1.038911	48.853806
4177.000000	0.995826	0.888967	31.249113
4178.000000	1.027500	0.906141	48.698601
4179.000000	1.089468	1.129509	36.237916
4180.000000	1.108103	1.068986	28.095314
4181.000000	1.070644	1.081978	56.356486
4182.000000	1.037057	1.011615	28.686553
4183.000000	0.977850	0.984152	35.961413
4184.000000	0.926576	0.925630	45.962467
4185.000000	1.040991	1.085389	29.599447
4186.000000	1.059090	1.157428	27.475556
4187.000000	1.167507	1.118263	36.348282
4188.000000	0.963394	0.968678	10.524843
4189.000000	0.938357	0.939181	26.280830
4190.000000	0.998787	0.970051	24.707818
4191.000000	1.139063	0.980965	23.998864
4192.000000	1.012884	1.077781	52.173636
4193.000000	0.809425	0.675953	48.925720
4194.000000	0.910556	0.824284	41.305672
4195.000000	0.986888	0.988597	53.381341
4196.000000	1.013257	1.048487	35.067271
4197.000000	0.994266	1.050072	51.499571
4198.000000	0.959867	0.938411	54.523968
4199.000000	1.078271	1.046744	23.881205
4200.000000	0.970294	0.926291	58.214121
4201.000000	0.904087	0.929833	52.391669
4202.000000	0.859151	0.886051	32.925822
4203.000000	0.910253	0.818836	60.900675
4204.000000	1.014723	1.138200	53.554561
4205.000000	0.853457	0.918664	34.973506
4206.000000	0.977400	0.894920	46.434345
4207.000000	0.930828	0.970251	29.604582
4208.000000	0.894784	0.850207	45.785742
4209.000000	0.869552	0.897235	70.039841
4210.000000	1.010096	1.086624	45.573521
4211.000000	0.906217	0.955204	46.940720
4212.000000	0.844907	0.829004	47.592615
4213.000000	0.835594	0.865857	31.272814
4214.000000	0.832773	0.768122	72.206380
4215.000000	0.885782	0.922542	70.103476
4216.000000	0.861404	0.808318	27.791889
4217.000000	0.950591	1.033112	68.449467
4218.000000	0.839016	0.896014	37.310471
4219.000000	0.815395	0.723405	50.984069
4220.000000	0.822764	0.820893	67.006738
4221.000000	0.932356	0.934171	50.944481
4222.000000	0.909006	0.939027	57.668732
4223.000000	0.823055	0.782884	75.312481
4224.000000	0.947814	0.972617	25.292428
4225.000000	0.786340	0.813408	66.945477
4226.000000	0.872299	0.823949	48.568818
4227.000000	0.912967	0.885661	51.924996
4228.000000	0.828437	0.881071	62.792392
4229.000000	0.841115	1.013897	49.533058
4230.000000	0.870578	0.899176	63.433521
4231.000000	0.832936	0.805651	56.824028
4232.000000	0.839625	0.841776	38.844479
4233.000000	0.881500	0.960279	81.951950
4234.000000	0.817701	0.795135	91.149003
4235.000000	1.012279	1.011310	60.393783
4236.000000	0.928792	0.973398	93.436244
4237.000000	0.777664	0.770030	97.856835
4238.000000	0.780639	0.729056	36.380978
4239.000000	0.960541	0.988625	70.745233
4240.000000	0.874041	0.796573	69.517415
4241.000000	0.901081	0.913768	50.135309
4242.000000	0.767303	0.662049	110.334362
4243.000000	0.834229	0.852087	75.723855
4244.000000	0.773910	0.898773	57.852118
4245.000000	0.813774	0.824297	72.744772
4246.000000	0.911620	0.878814	34.335640
4247.000000	0.804587	0.883281	61.642429
4248.000000	0.764455	0.763073	90.868284
4249.000000	0.953243	1.023019	43.343693
4250.000000	0.844480	0.799429	79.132443
4251.000000	0.844513	0.876807	62.428289
4252.000000	0.750076	0.769265	47.229027
4253.000000	0.965787	0.934679	99.857703
4254.000000	0.799795	0.846116	89.171442
4255.000000	0.816176	0.808999	63.785630
4256.000000	0.770411	0.757712	69.261549
4257.000000	0.848174	0.837947	61.612733
4258.000000	0.912111	0.956592	57.668779
4259.000000	0.728305	0.694648	76.673288
4260.000000	0.761077	0.723824	42.254802
4261.000000	0.843116	0.785917	61.463344
4262.000000	0.875520	0.808041	55.097546
4263.000000	0.818381	0.776458	43.690724
4264.000000	0.875039	0.867143	48.478779
4265.000000	0.779505	0.779094	51.683169
4266.000000	0.781675	0.814653	43.212164
4267.000000	0.891158	1.039423	74.845470
4268.000000	0.846826	0.876431	45.408530
4269.000000	0.783942	0.809122	33.635122
4270.000000	0.736547	0.688546	62.905668
4271.000000	0.848238	0.827256	43.260111
4272.000000	0.841369	0.804968	29.261656
4273.000000	0.697949	0.637650	53.785458
4274.000000	0.767618	0.820783	33.583335
4275.000000	0.789802	0.818712	60.039297
4276.000000	0.740717	0.715290	67.934542
4277.000000	0.805239	0.807099	39.846971
4278.000000	0.810934	0.868334	86.903044
4279.000000	0.792272	0.958772	66.379679
4280.000000	0.722766	0.714852	42.583872
4281.000000	0.742168	0.818524	65.548400
4282.000000	0.774691	0.872220	52.097434
4283.000000	0.925993	0.922414	37.793145
4284.000000	0.825362	0.737685	50.379148
4285.000000	0.745275	0.704547	27.832107
4286.000000	0.710115	0.712576	31.158895
4287.000000	0.750623	0.769338	39.157950
4288.000000	0.669621	0.598499	16.784216
4289.000000	0.678238	0.664520	37.948375
4290.000000	0.694591	0.711034	27.992131
4291.000000	0.669636	0.626341	40.738540
4292.000000	0.774928	0.695148	51.757844
4293.000000	0.734601	0.720573	38.329865
4294.000000	0.777862	0.784382	52.191031
4295.000000	0.710423	0.754253	82.859867
4296.000000	0.695218	0.672524	30.643303
4297.000000	0.771110	0.767500	53.689187
4298.000000	0.770190	0.771160	87.399528
4299.000000	0.710426	0.703613	42.808217
4300.000000	0.799884	0.780710	77.228814
4301.000000	0.800492	0.815172	105.798068
4302.000000	0.715826	0.729362	52.397765
4303.000000	0.739333	0.755832	132.662716
4304.000000	0.741594	0.674210	123.540181
4305.000000	0.596442	0.615225	90.600047
4306.000000	0.696977	0.729636	141.893125
4307.000000	0.694888	0.749981	61.980373
4308.000000	0.607453	0.645147	132.484955
4309.000000	0.665301	0.627615	183.648321
4310.000000	0.701690	0.731662	91.560580
4311.000000	0.697250	0.684462	139.346332
4312.000000	0.745115	0.652511	185.764097
4313.000000	0.706605	0.738283	77.221607
4314.000000	0.692862	0.692726	213.269798
4315.000000	0.721644	0.677164	197.248410
4316.000000	0.752078	0.734377	140.197886
4317.000000	0.719828	0.740307	214.225833
4318.000000	0.749619	0.783831	162.906995
4319.000000	0.687728	0.717133	172.739699
4320.000000	0.681992	0.636522	256.665271
4321.000000	0.608327	0.585998	143.306295
4322.000000	0.676266	0.675051	246.385884
4323.000000	0.681651	0.715149	296.048236
4324.000000	0.652816	0.632060	120.046505
4325.000000	0.766659	0.836329	296.345949
4326.000000	0.676090	0.624529	269.661476
4327.000000	0.635195	0.579233	178.510247
4328.000000	0.673335	0.670457	328.060491
4329.000000	0.712410	0.664697	323.007580
4330.000000	0.687901	0.734511	267.384267
4331.000000	0.780702	0.802364	430.974954
4332.000000	0.734095	0.697724	313.504092
4333.000000	0.696235	0.616292	353.722065
4334.000000	0.611465	0.637803	456.948674
4335.000000	0.702469	0.675481	268.506127
4336.000000	0.656704	0.678908	429.802406
4337.000000	0.719899	0.778436	429.134027
4338.000000	0.666407	0.651433	172.092514
4339.000000	0.600022	0.596244	428.736592
4340.000000	0.710298	0.646155	406.703162
4341.000000	0.616271	0.605981	248.705744
4342.000000	0.686640	0.664305	515.299227
4343.000000	0.696508	0.739184	339.546403
4344.000000	0.689783	0.753447	398.908567
4345.000000	0.693126	0.698213	425.362574
4346.000000	0.558371	0.534266	246.670742
4347.000000	0.645834	0.696778	350.369833
4348.000000	0.570594	0.518785	402.708647
4349.000000	0.582429	0.560189	167.315784
4350.000000	0.703887	0.650104	347.739717
4351.000000	0.618986	0.589685	348.231924
4352.000000	0.613518	0.544133	203.599599
4353.000000	0.682032	0.588835	348.744356
4354.000000	0.596311	0.562353	284.652011
4355.000000	0.613540	0.596953	198.282928
4356.000000	0.559740	0.676603	300.931604
4357.000000	0.520318	0.509877	150.901973
4358.000000	0.548227	0.500940	240.414986
4359.000000	0.496882	0.418759	289.728305
4360.000000	0.477009	0.484010	126.971267
4361.000000	0.476571	0.477686	214.051817
4362.000000	0.627807	0.662398	229.294965
4363.000000	0.560487	0.527507	107.597283
4364.000000	0.539687	0.583932	245.143073
4365.000000	0.482748	0.486694	230.633236
4366.000000	0.579627	0.558892	165.056562
4367.000000	0.556769	0.550334	265.185653
4368.000000	0.505166	0.464645	198.505229
4369.000000	0.474502	0.409843	199.239018
4370.000000	0.575919	0.533971	234.193603
4371.000000	0.482614	0.499593	140.389506
4372.000000	0.543689	0.534502	190.376608
4373.000000	0.552686	0.536327	207.368995
4374.000000	0.532898	0.520980	104.666522
4375.000000	0.507719	0.528912	162.446939
4376.000000	0.489016	0.503038	148.047869
4377.000000	0.472639	0.557222	102.207888
4378.000000	0.530165	0.537122	166.662868
4379.000000	0.500588	0.519504	130.667691
4380.000000	0.460998	0.469179	105.902970
4381.000000	0.463879	0.443097	138.223662
4382.000000	0.456780	0.424778	73.761577
4383.000000	0.440251	0.462283	104.076043
4384.000000	0.478698	0.461478	111.265094
4385.000000	0.489133	0.481308	56.130869
4386.000000	0.509053	0.489457	92.537661
4387.000000	0.545659	0.489462	106.698429
4388.000000	0.467104	0.414633	53.887489
4389.000000	0.498259	0.528253	120.416368
4390.000000	0.496591	0.507604	93.448085
4391.000000	0.560011	0.535752	75.187325
4392.000000	0.426419	0.378437	132.482812
4393.000000	0.432382	0.405399	100.035064
4394.000000	0.465718	0.442514	80.018551
4395.000000	0.412363	0.349757	122.397472
4396.000000	0.495087	0.449822	96.341988
4397.000000	0.434215	0.384207	138.570264
4398.000000	0.503137	0.495412	197.581821
4399.000000	0.427396	0.447339	86.048499
4400.000000	0.509702	0.530219	199.483237
4401.000000	0.473465	0.464209	192.451126
4402.000000	0.444261	0.443874	113.163893
4403.000000	0.489655	0.537178	243.575590
4404.000000	0.563977	0.566218	197.802465
4405.000000	0.452670	0.453458	158.068068
4406.000000	0.443861	0.477056	233.165710
4407.000000	0.485140	0.499239	168.289853
4408.000000	0.428370	0.408856	178.115077
4409.000000	0.529846	0.529392	224.614732
4410.000000	0.486788	0.501380	122.139568
4411.000000	0.476063	0.463761	203.478019
4412.000000	0.533495	0.533075	247.326416
4413.000000	0.403007	0.385017	92.780085
4414.000000	0.508111	0.518890	261.418889
4415.000000	0.455482	0.511405	171.615730
4416.000000	0.494099	0.502534	138.872985
4417.000000	0.446262	0.418038	221.532906
4418.000000	0.447169	0.433373	152.334702
4419.000000	0.487666	0.461257	152.282254
4420.000000	0.449550	0.497963	211.625824
4421.000000	0.486680	0.461892	108.182575
4422.000000	0.524609	0.551306	133.309618
4423.000000	0.452575	0.408579	157.038540
4424.000000	0.498281	0.487411	77.887330
4425.000000	0.458957	0.405848	134.628516
4426.000000	0.400416	0.434474	125.196614
4427.000000	0.468630	0.465178	68.248131
4428.000000	0.466830	0.488673	140.658837
4429.000000	0.452910	0.513077	99.666062
4430.000000	0.450107	0.395925	84.218412
4431.000000	0.426435	0.404630	131.693001
4432.000000	0.453122	0.421699	88.796395
4433.000000	0.407003	0.450502	104.483985
4434.000000	0.439129	0.452229	116.194714
4435.000000	0.476533	0.498182	63.721100
4436.000000	0.476354	0.403824	92.228193
4437.000000	0.426434	0.424787	112.506798
4438.000000	0.433036	0.412440	60.799467
4439.000000	0.500984	0.503697	147.289908
4440.000000	0.486156	0.518901	137.145322
4441.000000	0.456509	0.482921	81.880546
4442.000000	0.455004	0.441678	156.860179
4443.000000	0.410260	0.376284	117.049728
4444.000000	0.385338	0.346644	114.283677
4445.000000	0.425174	0.400043	174.174432
4446.000000	0.461374	0.482223	115.617175
4447.000000	0.393536	0.388971	153.617821
4448.000000	0.388696	0.355723	157.614569
4449.000000	0.431505	0.422573	68.947483
4450.000000	0.427561	0.410768	147.461762
4451.000000	0.422652	0.414375	135.898304
4452.000000	0.423225	0.430871	89.244602
4453.000000	0.404720	0.395081	144.598020
4454.000000	0.394241	0.377729	117.568130
4455.000000	0.424213	0.417166	110.096062
4456.000000	0.416202	0.423144	146.800381
4457.000000	0.398668	0.405837	101.072899
4458.000000	0.421653	0.478228	122.717720
4459.000000	0.399827	0.345641	116.930810
4460.000000	0.423713	0.400243	66.838695
4461.000000	0.469163	0.501782	90.767796
4462.000000	0.418869	0.380007	118.304061
4463.000000	0.422315	0.375520	62.921597
4464.000000	0.433653	0.416483	141.845797
4465.000000	0.411352	0.356256	138.492648
4466.000000	0.415310	0.393698	94.848856
4467.000000	0.414035	0.368136	186.120063
4468.000000	0.387802	0.387349	145.882294
4469.000000	0.396868	0.410161	136.249994
4470.000000	0.384679	0.385186	199.812372
4471.000000	0.451226	0.438691	124.402237
4472.000000	0.395509	0.365222	150.853716
4473.000000	0.428508	0.406881	173.799086
4474.000000	0.352515	0.352548	60.186942
4475.000000	0.390325	0.367169	123.553956
4476.000000	0.367983	0.362839	107.036326
4477.000000	0.422765	0.454186	61.691768
4478.000000	0.430706	0.427041	110.082152
4479.000000	0.346989	0.309293	92.488563
4480.000000	0.397866	0.384799	58.057891
4481.000000	0.403275	0.371797	85.894805
4482.000000	0.435727	0.442805	69.968147
4483.000000	0.423102	0.414732	77.315075
4484.000000	0.380465	0.372231	92.707256
4485.000000	0.364798	0.376954	60.569052
4486.000000	0.379039	0.389526	93.690179
4487.000000	0.345406	0.377294	90.960984
4488.000000	0.421977	0.407815	40.224950
4489.000000	0.414851	0.381823	91.985188
4490.000000	0.396640	0.379346	83.905230
4491.000000	0.444609	0.484601	62.316861
4492.000000	0.461889	0.498530	87.041023
4493.000000	0.403354	0.390824	55.409336
4494.000000	0.420754	0.408406	56.624267
4495.000000	0.427624	0.436146	75.410167
4496.000000	0.446305	0.442900	37.652672
4497.000000	0.436791	0.433375	63.087007
4498.000000	0.415823	0.376955	58.424549
4499.000000	0.445887	0.402046	27.776129
4500.000000	0.457508	0.466884	59.082728
4501.000000	0.377290	0.406412	56.376590
4502.000000	0.370658	0.404834	33.846768
4503.000000	0.352303	0.370977	53.295160
4504.000000	0.384421	0.395936	47.290051
4505.000000	0.428080	0.375431	43.228125
4506.000000	0.433436	0.454747	71.329720
4507.000000	0.443416	0.486116	50.329376
4508.000000	0.406437	0.360741	56.790390
4509.000000	0.474412	0.430310	89.822692
4510.000000	0.417372	0.395033	41.154551
4511.000000	0.518125	0.516127	97.256098
4512.000000	0.423994	0.416875	110.786535
4513.000000	0.481460	0.454376	56.143127
4514.000000	0.438724	0.440312	120.828886
4515.000000	0.401647	0.386108	110.593192
4516.000000	0.473312	0.426749	91.698530
4517.000000	0.447441	0.409922	147.987571
4518.000000	0.434148	0.436105	113.175593
4519.000000	0.470442	0.424987	100.617920
4520.000000	0.439674	0.468572	142.679174
4521.000000	0.447664	0.427347	76.739067
4522.000000	0.456364	0.440433	114.884895
4523.000000	0.451474	0.440062	145.707864
4524.000000	0.453368	0.440249	67.311225
4525.000000	0.444583	0.430410	171.024768
4526.000000	0.438233	0.473674	184.911100
4527.000000	0.493203	0.499534	115.517250
4528.000000	0.487336	0.455502	183.165864
4529.000000	0.455647	0.428896	169.269289
4530.000000	0.413842	0.418649	154.111703
4531.000000	0.419454	0.398568	200.343540
4532.000000	0.504143	0.497030	131.653628
4533.000000	0.512518	0.488196	181.938474
4534.000000	0.505400	0.464381	196.451664
4535.000000	0.492032	0.542890	93.894770
4536.000000	0.460488	0.447950	140.953982
4537.000000	0.488343	0.470410	122.432598
4538.000000	0.508798	0.535029	48.123185
4539.000000	0.473261	0.446259	111.958626
4540.000000	0.504109	0.511501	69.618728
4541.000000	0.452864	0.526065	40.617703
4542.000000	0.451544	0.437021	50.971158
4543.000000	0.429597	0.408668	20.643067
4544.000000	0.526295	0.500534	18.952461
4545.000000	0.426533	0.404293	40.922144
4546.000000	0.513131	0.472847	29.996982
4547.000000	0.533637	0.602993	53.983223
4548.000000	0.539046	0.545509	61.247094
4549.000000	0.471792	0.495321	25.229295
4550.000000	0.545282	0.579215	56.773132
4551.000000	0.510935	0.487576	42.251035
4552.000000	0.524592	0.512164	40.890103
4553.000000	0.498665	0.502414	61.870808
4554.000000	0.501621	0.457352	35.452360
4555.000000	0.489997	0.489204	34.168189
4556.000000	0.469433	0.465266	32.717688
4557.000000	0.458671	0.434730	22.554474
4558.000000	0.445741	0.429071	32.421260
4559.000000	0.522155	0.504941	16.457675
4560.000000	0.515361	0.479149	9.999066
4561.000000	0.500931	0.511067	15.524508
4562.000000	0.483025	0.565686	16.342474
4563.000000	0.491477	0.479364	9.795463
4564.000000	0.483289	0.554026	10.750666
4565.000000	0.489499	0.449485	8.847273
4566.000000	0.474631	0.467144	10.013500
4567.000000	0.487487	0.451591	26.595197
4568.000000	0.496269	0.452877	18.437144
4569.000000	0.493271	0.531057	25.272387
4570.000000	0.427220	0.348429	37.382015
4571.000000	0.460524	0.440162	15.487435
4572.000000	0.495685	0.479032	24.975974
4573.000000	0.513370	0.480012	31.479854
4574.000000	0.427654	0.394198	17.251379
4575.000000	0.451806	0.447952	30.591720
4576.000000	0.415389	0.386065	29.680860
4577.000000	0.493073	0.447632	14.524434
4578.000000	0.413472	0.446066	22.084570
4579.000000	0.489166	0.556137	11.406088
4580.000000	0.515941	0.473475	10.367956
4581.000000	0.469869	0.511570	2.879984
4582.000000	0.440162	0.452031	2.872337
4583.000000	0.545924	0.573997	2.394111
4584.000000	0.467972	0.529240	1.995936
4585.000000	0.469688	0.422553	1.590243
4586.000000	0.472327	0.448110	2.662417
4587.000000	0.427250	0.427717	8.729157
4588.000000	0.446271	0.426898	9.043561
4589.000000	0.445859	0.413058	20.086468
4590.000000	0.453494	0.453580	22.003188
4591.000000	0.443700	0.431457	26.865578
4592.000000	0.417173	0.382084	45.824136
4593.000000	0.497099	0.497796	39.201706
4594.000000	0.395421	0.387081	32.692172
4595.000000	0.448578	0.486371	51.457523
4596.000000	0.452157	0.451570	25.254110
4597.000000	0.383473	0.397937	28.205363
4598.000000	0.400077	0.363445	33.633178
4599.000000	0.516159	0.515294	10.532183
4600.000000	0.481795	0.501340	17.203565
4601.000000	0.463928	0.508418	28.515095
4602.000000	0.450000	0.522781	19.527208
4603.000000	0.410467	0.381823	55.047208
4604.000000	0.462108	0.463337	47.485591
4605.000000	0.451125	0.464267	51.664912
4606.000000	0.457638	0.477279	76.402888
4607.000000	0.511301	0.525209	54.509663
4608.000000	0.486801	0.498090	46.533888
4609.000000	0.457506	0.465125	94.351177
4610.000000	0.464757	0.472060	45.514060
4611.000000	0.432317	0.447989	65.859639
4612.000000	0.494269	0.508450	55.724944
4613.000000	0.472455	0.485006	30.034755
4614.000000	0.383992	0.389382	45.047884
4615.000000	0.456680	0.472091	48.344697
4616.000000	0.449696	0.449042	28.070486
4617.000000	0.431333	0.382704	62.869934
4618.000000	0.385881	0.356690	37.907515
4619.000000	0.420309	0.449694	41.434785
4620.000000	0.448578	0.412074	74.551365
4621.000000	0.486728	0.445004	45.841998
4622.000000	0.498601	0.454409	68.287812
4623.000000	0.451028	0.451542	76.518448
4624.000000	0.442917	0.427474	54.221599
4625.000000	0.443314	0.444725	106.708418
4626.000000	0.475209	0.466104	121.304937
4627.000000	0.442680	0.437075	76.517863
4628.000000	0.430733	0.518470	158.838472
4629.000000	0.413005	0.346635	135.438083
4630.000000	0.425475	0.382748	113.385896
4631.000000	0.442159	0.440574	208.477374
4632.000000	0.436960	0.412324	118.107298
4633.000000	0.448416	0.493503	139.240569
4634.000000	0.457825	0.502576	162.002139
4635.000000	0.424079	0.406729	78.383302
4636.000000	0.381838	0.343916	124.049253
4637.000000	0.464495	0.519578	96.500849
4638.000000	0.450731	0.443158	39.826782
4639.000000	0.412945	0.394602	73.383611
4640.000000	0.451096	0.448670	54.703308
4641.000000	0.406487	0.370095	44.153126
4642.000000	0.394853	0.369112	62.279660
4643.000000	0.450379	0.377144	37.449298
4644.000000	0.442525	0.431958	39.428622
4645.000000	0.385203	0.373222	53.186804
4646.000000	0.384149	0.401449	27.070081
4647.000000	0.399751	0.409757	23.989171
4648.000000	0.425049	0.411227	23.240682
4649.000000	0.399843	0.377043	14.316315
4650.000000	0.443962	0.414860	19.180323
4651.000000	0.432716	0.409601	20.953583
4652.000000	0.417750	0.430929	11.791459
4653.000000	0.441716	0.445511	20.610220
4654.000000	0.361375	0.380059	21.461287
4655.000000	0.431592	0.431037	12.485570
4656.000000	0.401779	0.390803	25.369451
4657.000000	0.430628	0.453813	10.964335
4658.000000	0.406891	0.468002	15.678431
4659.000000	0.447140	0.430769	21.389053
4660.000000	0.459595	0.499728	12.728989
4661.000000	0.469506	0.422380	12.967523
4662.000000	0.457176	0.452049	11.289990
4663.000000	0.432044	0.419587	5.590163
4664.000000	0.442059	0.542896	24.691249
4665.000000	0.451135	0.416365	20.612388
4666.000000	0.471370	0.464508	13.970395
4667.000000	0.490409	0.488312	30.647791
4668.000000	0.474207	0.501356	36.233272
4669.000000	0.436022	0.435086	44.438307
4670.000000	0.458710	0.450686	51.528322
4671.000000	0.474258	0.472482	36.730150
4672.000000	0.521801	0.549291	49.736661
4673.000000	0.463788	0.473726	48.590320
4674.000000	0.461475	0.445086	19.901556
4675.000000	0.433101	0.459517	57.275704
4676.000000	0.492515	0.456277	58.139725
4677.000000	0.493246	0.481109	35.199271
4678.000000	0.499006	0.464240	73.863975
4679.000000	0.468452	0.451236	51.748958
4680.000000	0.539671	0.660200	48.871794
4681.000000	0.500744	0.443208	70.482094
4682.000000	0.460383	0.408943	53.843463
4683.000000	0.445081	0.482927	74.455803
4684.000000	0.478860	0.466320	95.138059
4685.000000	0.440821	0.426317	57.280577
4686.000000	0.510578	0.547894	90.553389
4687.000000	0.504910	0.511992	76.325159
4688.000000	0.502397	0.517814	44.882113
4689.000000	0.502047	0.494049	80.268281
4690.000000	0.564190	0.536181	62.286442
4691.000000	0.514627	0.564333	38.525261
4692.000000	0.520080	0.520888	76.441530
4693.000000	0.492981	0.532558	53.935428
4694.000000	0.489550	0.494162	60.882582
4695.000000	0.496782	0.506710	71.127359
4696.000000	0.517318	0.509592	31.275849
4697.000000	0.455956	0.441222	38.568592
4698.000000	0.488996	0.479951	28.180530
4699.000000	0.510738	0.486098	9.550786
4700.000000	0.485990	0.506036	22.175076
4701.000000	0.492529	0.476669	29.311725
4702.000000	0.491913	0.514929	20.650125
4703.000000	0.504798	0.507723	44.811760
4704.000000	0.507296	0.508859	53.106287
4705.000000	0.500884	0.503605	28.606716
4706.000000	0.461017	0.454761	64.463072
4707.000000	0.511687	0.468487	34.686111
4708.000000	0.473761	0.474520	52.116818
4709.000000	0.492051	0.476292	60.829270
4710.000000	0.488888	0.513030	35.899320
4711.000000	0.482642	0.525397	53.510757
4712.000000	0.437195	0.402642	52.429831
4713.000000	0.528230	0.581979	37.434981
4714.000000	0.456704	0.551068	78.293936
4715.000000	0.520785	0.546129	58.617848
4716.000000	0.481988	0.514073	52.667186
4717.000000	0.497023	0.511248	106.980779
4718.000000	0.441363	0.410878	63.447637
4719.000000	0.450585	0.428683	61.063337
4720.000000	0.459292	0.398946	93.683009
4721.000000	0.498815	0.497838	55.642774
4722.000000	0.460063	0.467363	63.757935
4723.000000	0.461854	0.475641	81.287990
4724.000000	0.548661	0.549716	34.633793
4725.000000	0.432722	0.404704	41.260675
4726.000000	0.480481	0.539386	39.099332
4727.000000	0.461829	0.434153	17.879763
4728.000000	0.425090	0.511616	31.218140
4729.000000	0.476678	0.445952	14.696977
4730.000000	0.438722	0.418709	11.906043
4731.000000	0.495913	0.462904	14.437376
4732.000000	0.467411	0.466033	5.756207
4733.000000	0.469565	0.453937	3.269329
4734.000000	0.408846	0.409414	4.773435
4735.000000	0.465132	0.497315	2.008689
4736.000000	0.452483	0.447314	2.765792
4737.000000	0.476113	0.438930	1.997636
4738.000000	0.480340	0.485046	3.609679
4739.000000	0.448553	0.470047	11.521432
4740.000000	0.412205	0.443169	11.398140
4741.000000	0.442048	0.523606	16.615470
4742.000000	0.463589	0.428574	41.508210
4743.000000	0.394808	0.369550	21.507779
4744.000000	0.450172	0.422040	48.379027
4745.000000	0.436727	0.462056	71.515672
4746.000000	0.417026	0.400426	58.665961
4747.000000	0.421338	0.379032	104.433795
4748.000000	0.451229	0.439179	140.424369
4749.000000	0.437150	0.494953	72.465694
4750.000000	0.444218	0.456903	138.524670
4751.000000	0.483942	0.512464	157.082393
4752.000000	0.408182	0.399072	87.875682
4753.000000	0.358967	0.314570	141.250441
4754.000000	0.436382	0.433575	142.181384
4755.000000	0.373155	0.440415	124.240218
4756.000000	0.343600	0.354229	201.279176
4757.000000	0.414066	0.406844	153.974930
4758.000000	0.435071	0.424089	195.584241
4759.000000	0.395752	0.383514	252.099182
4760.000000	0.410072	0.348889	145.612963
4761.000000	0.390819	0.424427	261.121232
4762.000000	0.453547	0.460337	298.755979
4763.000000	0.404185	0.476293	163.315482
4764.000000	0.369750	0.372336	420.446957
4765.000000	0.384286	0.381710	418.218374
4766.000000	0.436145	0.472738	283.402002
4767.000000	0.390391	0.411492	542.531542
4768.000000	0.422031	0.379415	391.036411
4769.000000	0.377235	0.344072	370.893579
4770.000000	0.419766	0.378141	627.757484
4771.000000	0.430605	0.442553	329.689483
4772.000000	0.412516	0.414888	495.362217
4773.000000	0.393443	0.365781	592.138079
4774.000000	0.360933	0.332510	261.609364
4775.000000	0.439578	0.417907	561.821905
4776.000000	0.405956	0.386998	588.087687
4777.000000	0.360631	0.380876	345.687451
4778.000000	0.387048	0.379001	689.505181
4779.000000	0.371781	0.301446	603.292357
4780.000000	0.426128	0.416641	507.311499
4781.000000	0.445936	0.429135	865.122834
4782.000000	0.401169	0.402828	580.002059
4783.000000	0.351800	0.359205	670.256735
4784.000000	0.391739	0.452519	925.568418
4785.000000	0.394920	0.419523	507.388034
4786.000000	0.424078	0.390191	848.537948
4787.000000	0.417713	0.435741	951.324732
4788.000000	0.387766	0.399854	469.516435
4789.000000	0.363917	0.361829	1012.603388
4790.000000	0.359757	0.345944	917.186988
4791.000000	0.386578	0.375125	597.961725
4792.000000	0.382969	0.346760	1027.329466
4793.000000	0.363042	0.360419	754.606211
4794.000000	0.382603	0.366662	689.094128
4795.000000	0.325630	0.349270	981.789755
4796.000000	0.394166	0.424016	586.479759
4797.000000	0.397247	0.384238	763.939489
4798.000000	0.360378	0.349209	819.427374
4799.000000	0.354466	0.365456	382.381172
4800.000000	0.360422	0.436555	743.394135
4801.000000	0.413255	0.390115	702.042257
4802.000000	0.389093	0.464964	398.843053
4803.000000	0.355277	0.366464	869.395667
4804.000000	0.416216	0.428133	751.578294
4805.000000	0.378077	0.329915	614.520186
4806.000000	0.384227	0.399611	1062.053528
4807.000000	0.363848	0.376916	692.653281
4808.000000	0.374883	0.404734	841.513861
4809.000000	0.349921	0.381902	1128.590647
4810.000000	0.355008	0.345825	605.978940
4811.000000	0.372616	0.393742	943.685545
4812.000000	0.381251	0.354826	1027.057695
4813.000000	0.358690	0.402629	449.712889
4814.000000	0.354876	0.312798	1019.518449
4815.000000	0.336150	0.340334	935.311549
4816.000000	0.382783	0.355942	616.164113
4817.000000	0.368530	0.355325	1107.812985
4818.000000	0.411794	0.392349	780.537330
4819.000000	0.420830	0.437433	816.324710
4820.000000	0.359909	0.349588	1215.974762
4821.000000	0.393528	0.439992	708.888267
4822.000000	0.354461	0.328642	1042.842015
4823.000000	0.349433	0.431963	1282.374751
4824.000000	0.360061	0.367015	547.383239
4825.000000	0.368261	0.392577	1174.086139
4826.000000	0.433170	0.434353	1198.789533
4827.000000	0.362956	0.355038	647.089997
4828.000000	0.398622	0.438194	1394.196035
4829.000000	0.373206	0.358058	1125.044787
4830.000000	0.370546	0.364711	983.301751
4831.000000	0.384003	0.396950	1514.142414
4832.000000	0.344863	0.338263	1077.942403
4833.000000	0.368564	0.399355	1270.668006
4834.000000	0.339674	0.370327	1605.574877
4835.000000	0.355186	0.453031	865.784542
4836.000000	0.350152	0.337648	1358.733846
4837.000000	0.330848	0.298104	1467.490931
4838.000000	0.324773	0.342742	700.543291
4839.000000	0.346903	0.387996	1427.974714
4840.000000	0.338116	0.300021	1304.091500
4841.000000	0.386443	0.368583	843.135375
4842.000000	0.313382	0.329641	1454.369605
4843.000000	0.367246	0.378111	924.680881
4844.000000	0.325844	0.362211	963.157253
4845.000000	0.318936	0.313497	1255.285554
4846.000000	0.352461	0.344347	707.963881
4847.000000	0.364391	0.365732	961.799414
4848.000000	0.357718	0.358376	1042.515174
4849.000000	0.324370	0.346143	445.291017
4850.000000	0.313902	0.297100	865.496176
4851.000000	0.364896	0.354713	801.956139
4852.000000	0.331501	0.357818	449.250829
4853.000000	0.400934	0.392147	790.459352
4854.000000	0.371358	0.380451	600.603615
4855.000000	0.348127	0.333501	489.067103
4856.000000	0.359913	0.362813	704.461551
4857.000000	0.329567	0.381867	451.864290
4858.000000	0.382920	0.359908	509.193128
4859.000000	0.341123	0.300543	609.880030
4860.000000	0.366753	0.345735	304.886174
4861.000000	0.350016	0.379778	498.875690
4862.000000	0.313066	0.295537	520.073720
4863.000000	0.320954	0.294223	252.127342
4864.000000	0.324248	0.299416	529.029761
4865.000000	0.347547	0.364901	483.615823
4866.000000	0.328435	0.295847	355.280222
4867.000000	0.311648	0.310852	597.239587
4868.000000	0.334476	0.296267	447.433197
4869.000000	0.335652	0.321682	444.723851
4870.000000	0.343004	0.354713	607.852352
4871.000000	0.318583	0.327000	321.902673
4872.000000	0.312371	0.301550	501.753698
4873.000000	0.352286	0.348768	506.696156
4874.000000	0.345299	0.344298	217.736786
4875.000000	0.311328	0.279396	471.860740
4876.000000	0.298665	0.299500	375.736335
4877.000000	0.340655	0.319128	221.876668
4878.000000	0.309032	0.313274	358.198440
4879.000000	0.325802	0.299310	297.415654
4880.000000	0.297405	0.287354	221.312659
4881.000000	0.281421	0.292812	336.197120
4882.000000	0.305847	0.301768	232.906109
4883.000000	0.317863	0.281261	271.759413
4884.000000	0.312982	0.295730	311.716543
4885.000000	0.287248	0.280960	164.393905
4886.000000	0.272353	0.271463	229.827389
4887.000000	0.302317	0.311627	266.863061
4888.000000	0.351836	0.338161	115.955167
4889.000000	0.319053	0.309720	289.981405
4890.000000	0.293626	0.278109	226.651273
4891.000000	0.294309	0.286542	170.626112
4892.000000	0.350394	0.327119	350.998300
4893.000000	0.316764	0.312949	281.180626
4894.000000	0.302302	0.310158	288.903080
4895.000000	0.292781	0.273064	392.554135
4896.000000	0.301642	0.282486	265.273114
4897.000000	0.300205	0.291509	321.373768
4898.000000	0.324945	0.340551	397.785834
4899.000000	0.281936	0.254105	166.020448
4900.000000	0.317593	0.265062	388.220583
4901.000000	0.318206	0.332320	348.081750
4902.000000	0.301874	0.337573	175.494986
4903.000000	0.309213	0.285600	328.151342
4904.000000	0.318097	0.351291	260.098946
4905.000000	0.305908	0.281683	205.637060
4906.000000	0.311981	0.291628	326.826861
4907.000000	0.300489	0.294561	234.288194
4908.000000	0.285103	0.296825	232.093379
4909.000000	0.309024	0.276566	304.205856
4910.000000	0.341164	0.369701	185.871405
4911.000000	0.326003	0.340692	283.684251
4912.000000	0.314646	0.349837	296.380585
4913.000000	0.302715	0.310554	152.556701
4914.000000	0.331686	0.309900	305.265412
4915.000000	0.313779	0.299689	248.142969
4916.000000	0.355896	0.364085	207.081296
4917.000000	0.387820	0.406347	355.860722
4918.000000	0.321172	0.309731	270.640751
4919.000000	0.317760	0.340757	272.353552
4920.000000	0.305199	0.306945	400.677565
4921.000000	0.336658	0.336407	217.957801
4922.000000	0.335245	0.348014	289.941030
4923.000000	0.324715	0.297980	347.945779
4924.000000	0.330185	0.300939	137.736476
4925.000000	0.323181	0.341655	322.266652
4926.000000	0.341328	0.343540	336.489213
4927.000000	0.332005	0.314757	172.148931
4928.000000	0.327138	0.295618	340.255669
4929.000000	0.365330	0.365408	258.369409
4930.000000	0.373952	0.390374	204.963892
4931.000000	0.310359	0.294644	359.096886
4932.000000	0.396287	0.435967	235.234827
4933.000000	0.296517	0.295066	297.738123
4934.000000	0.334141	0.320640	392.319066
4935.000000	0.320873	0.331111	204.249285
4936.000000	0.342954	0.331890	322.690377
4937.000000	0.313075	0.320858	365.492845
4938.000000	0.369007	0.394656	154.748592
4939.000000	0.345632	0.346975	378.032386
4940.000000	0.365467	0.348816	324.387075
4941.000000	0.321165	0.318105	234.492597
4942.000000	0.340082	0.310888	407.548041
4943.000000	0.358972	0.402507	313.959482
4944.000000	0.341325	0.323488	305.438736
4945.000000	0.366444	0.360919	434.673985
4946.000000	0.389268	0.368656	228.907652
4947.000000	0.360694	0.327124	334.481120
4948.000000	0.348793	0.340631	343.721242
4949.000000	0.329175	0.303210	145.474658
4950.000000	0.350223	0.364158	338.300431
4951.000000	0.349205	0.355824	362.066125
4952.000000	0.344999	0.344638	218.831853
4953.000000	0.319057	0.329395	460.763101
4954.000000	0.337137	0.332833	388.829209
4955.000000	0.323451	0.320300	347.540358
4956.000000	0.329313	0.320687	554.116356
4957.000000	0.365284	0.363284	409.859842
4958.000000	0.363344	0.350359	510.659279
4959.000000	0.386286	0.398486	666.537159
4960.000000	0.366404	0.318539	389.386718
4961.000000	0.369880	0.330372	605.644788
4962.000000	0.372206	0.353688	648.733223
4963.000000	0.313977	0.293687	284.848841
4964.000000	0.366978	0.339340	687.548867
4965.000000	0.370771	0.356912	560.539043
4966.000000	0.371610	0.334750	395.785738
4967.000000	0.380527	0.348953	707.289170
4968.000000	0.352117	0.357068	496.668198
4969.000000	0.356476	0.358060	479.025955
4970.000000	0.390041	0.396090	646.436524
4971.000000	0.434145	0.501580	377.590848
4972.000000	0.312595	0.321112	512.260947
4973.000000	0.362776	0.317285	565.071304
4974.000000	0.376241	0.350439	214.992406
4975.000000	0.362592	0.323558	504.304560
4976.000000	0.362829	0.386930	448.909181
4977.000000	0.422685	0.392531	254.183574
4978.000000	0.408605	0.454049	488.288782
4979.000000	0.333754	0.350234	390.193648
4980.000000	0.382664	0.387966	339.014401
4981.000000	0.370416	0.396325	500.814438
4982.000000	0.439906	0.457968	354.005458
4983.000000	0.425072	0.404401	408.037492
4984.000000	0.355820	0.353514	494.033706
4985.000000	0.365701	0.420910	248.914305
4986.000000	0.410640	0.401531	380.506830
4987.000000	0.397832	0.383565	499.919957
4988.000000	0.410995	0.472180	201.467527
4989.000000	0.403637	0.395225	454.045169
4990.000000	0.339614	0.346347	424.914090
4991.000000	0.312007	0.277061	283.537772
4992.000000	0.390647	0.375421	499.508206
4993.000000	0.353444	0.346337	312.091805
4994.000000	0.396323	0.380389	304.293809
4995.000000	0.395026	0.399077	434.077800
4996.000000	0.367697	0.423697	227.502806
4997.000000	0.369268	0.341098	295.684776
4998.000000	0.364383	0.369509	338.064408
4999.000000	0.452921	0.421614	148.425936
5000.000000	0.419302	0.514827	279.674678
5001.000000	0.431010	0.466676	271.512370
5002.000000	0.387411	0.381088	126.390361
5003.000000	0.376134	0.370274	234.115391
5004.000000	0.370048	0.366081	163.024372
5005.000000	0.343753	0.363816	122.486907
5006.000000	0.381020	0.366693	187.606642
5007.000000	0.428128	0.409523	138.013312
5008.000000	0.381857	0.359145	140.207963
5009.000000	0.405626	0.381307	188.729845
5010.000000	0.401803	0.396603	119.173603
5011.000000	0.352904	0.364726	191.307026
5012.000000	0.371239	0.382205	203.908893
5013.000000	0.403184	0.365485	97.707836
5014.000000	0.352446	0.410446	225.829963
5015.000000	0.454191	0.442989	156.838758
5016.000000	0.341911	0.344467	107.927787
5017.000000	0.388289	0.391497	214.924907
5018.000000	0.344657	0.345423	148.042551
5019.000000	0.397452	0.415010	127.979983
5020.000000	0.365255	0.376259	162.080460
5021.000000	0.408856	0.428522	90.221523
5022.000000	0.375516	0.332594	103.852676
5023.000000	0.388318	0.404311	147.626167
5024.000000	0.413746	0.364015	75.922141
5025.000000	0.368399	0.370815	150.210598
5026.000000	0.412693	0.405176	189.952097
5027.000000	0.371254	0.415339	93.063736
5028.000000	0.388952	0.341853	260.607141
5029.000000	0.428171	0.433963	206.933132
5030.000000	0.409840	0.443818	175.532315
5031.000000	0.387721	0.344031	254.071950
5032.000000	0.382942	0.361558	175.174400
5033.000000	0.370317	0.385684	179.777545
5034.000000	0.406715	0.383647	238.999938
5035.000000	0.360822	0.377187	118.067038
5036.000000	0.378201	0.340154	201.764257
5037.000000	0.395593	0.347484	197.417175
5038.000000	0.355746	0.357933	107.418874
5039.000000	0.340169	0.326871	205.625910
5040.000000	0.416887	0.479708	177.988435
5041.000000	0.364549	0.352253	101.914571
5042.000000	0.413412	0.424446	183.225461
5043.000000	0.400793	0.366469	152.502375
5044.000000	0.380594	0.392586	99.418635
5045.000000	0.364954	0.358242	170.773252
5046.000000	0.395222	0.383119	100.440333
5047.000000	0.411443	0.446768	132.689806
5048.000000	0.375883	0.337463	177.863321
5049.000000	0.359443	0.363566	109.708978
5050.000000	0.400889	0.359443	196.945027
5051.000000	0.374587	0.404801	202.063587
5052.000000	0.420585	0.413524	130.856040
5053.000000	0.369204	0.370842	232.267872
5054.000000	0.371823	0.361852	208.562585
5055.000000	0.385284	0.444054	153.981130
5056.000000	0.385190	0.426432	262.834704
5057.000000	0.414452	0.414973	202.480059
5058.000000	0.415075	0.381654	209.496352
5059.000000	0.344585	0.344053	299.758667
5060.000000	0.386511	0.351921	153.744912
5061.000000	0.441947	0.398030	270.451521
5062.000000	0.365381	0.363630	271.907153
5063.000000	0.382538	0.330106	151.027869
5064.000000	0.418794	0.366364	266.982590
5065.000000	0.408272	0.391279	214.918809
5066.000000	0.351289	0.339052	117.400772
5067.000000	0.400140	0.379828	186.563003
5068.000000	0.387405	0.387396	121.763946
5069.000000	0.436121	0.402999	87.052052
5070.000000	0.424122	0.428673	151.556289
5071.000000	0.377388	0.395113	86.677045
5072.000000	0.395063	0.453564	113.118588
5073.000000	0.413769	0.370801	137.385864
5074.000000	0.407315	0.435593	80.295443
5075.000000	0.403855	0.427364	128.412557
5076.000000	0.380114	0.400640	153.269036
5077.000000	0.358859	0.338639	79.060440
5078.000000	0.348490	0.373425	143.745168
5079.000000	0.351608	0.340355	121.967445
5080.000000	0.406351	0.402492	79.810002
5081.000000	0.392514	0.352814	163.326426
5082.000000	0.417803	0.407300	122.991511
5083.000000	0.410067	0.379507	130.515730
5084.000000	0.374982	0.401619	186.965535
5085.000000	0.408186	0.414227	108.970763
5086.000000	0.406337	0.451653	160.169478
5087.000000	0.382426	0.401036	141.880643
5088.000000	0.391271	0.383368	65.447263
5089.000000	0.346628	0.349802	111.409763
5090.000000	0.371534	0.333339	64.110938
5091.000000	0.375633	0.347165	39.009587
5092.000000	0.427474	0.464112	61.672171
5093.000000	0.429180	0.437304	48.181567
5094.000000	0.359048	0.346036	34.635146
5095.000000	0.356661	0.365116	65.995533
5096.000000	0.394822	0.414144	35.384506
5097.000000	0.458797	0.419727	66.925704
5098.000000	0.395887	0.428429	79.126185
5099.000000	0.379472	0.376906	36.645701
5100.000000	0.371985	0.380097	73.363009
5101.000000	0.412828	0.388260	106.939982
5102.000000	0.345896	0.309676	68.258265
5103.000000	0.408073	0.410842	157.781514
5104.000000	0.372971	0.430835	136.297749
5105.000000	0.290626	0.276887	114.223725
5106.000000	0.351112	0.352707	186.278361
5107.000000	0.368659	0.373840	114.153040
5108.000000	0.347670	0.326262	117.646383
5109.000000	0.399714	0.371076	181.066043
5110.000000	0.377464	0.370795	88.631002
5111.000000	0.385267	0.387775	165.730830
5112.000000	0.409399	0.396473	133.515561
5113.000000	0.392155	0.434809	63.100654
5114.000000	0.391576	0.436606	110.301294
5115.000000	0.364199	0.385336	69.538978
5116.000000	0.348249	0.337893	46.023502
5117.000000	0.393398	0.380778	66.361042
5118.000000	0.363250	0.343883	44.367996
5119.000000	0.389151	0.367172	46.611310
5120.000000	0.377710	0.379689	71.833801
5121.000000	0.355661	0.328711	37.232555
5122.000000	0.373625	0.379455	81.129099
5123.000000	0.351977	0.324380	97.492518
5124.000000	0.385469	0.376752	65.969001
5125.000000	0.386413	0.390594	111.902360
5126.000000	0.471754	0.425124	117.638853
5127.000000	0.413387	0.384622	66.883391
5128.000000	0.387657	0.424966	139.830667
5129.000000	0.341032	0.308279	99.349835
5130.000000	0.366481	0.376631	74.392578
5131.000000	0.381209	0.337359	135.443831
5132.000000	0.387656	0.415124	85.304495
5133.000000	0.408437	0.407593	118.093552
5134.000000	0.355157	0.391878	131.658010
5135.000000	0.386303	0.393065	69.104914
5136.000000	0.369377	0.404710	108.350512
5137.000000	0.389207	0.399474	104.124208
5138.000000	0.414794	0.400583	42.063639
5139.000000	0.385826	0.406240	88.839864
5140.000000	0.455722	0.427849	87.432981
5141.000000	0.406904	0.451570	52.267024
5142.000000	0.393423	0.388174	96.289948
5143.000000	0.401740	0.389407	57.248121
5144.000000	0.419247	0.360344	42.186541
5145.000000	0.399806	0.393299	69.477263
5146.000000	0.406504	0.384032	33.376622
5147.000000	0.347959	0.345745	43.320221
5148.000000	0.359982	0.346951	66.303404
5149.000000	0.380451	0.392600	44.980697
5150.000000	0.371745	0.372800	79.118245
5151.000000	0.340330	0.326431	80.992221
5152.000000	0.416694	0.375191	61.122061
5153.000000	0.396151	0.409787	121.076578
5154.000000	0.362286	0.321427	99.122726
5155.000000	0.341128	0.368872	67.014941
5156.000000	0.392319	0.398307	133.794086
5157.000000	0.370528	0.349397	97.260601
5158.000000	0.352757	0.349782	120.237162
5159.000000	0.373167	0.357359	138.143121
5160.000000	0.430344	0.401774	84.545479
5161.000000	0.400864	0.415426	112.722822
5162.000000	0.410480	0.427190	104.526534
5163.000000	0.388407	0.415536	52.717795
5164.000000	0.396957	0.390755	105.724616
5165.000000	0.390264	0.382060	60.587420
5166.000000	0.404098	0.383122	43.915146
5167.000000	0.415904	0.409986	49.970523
5168.000000	0.435713	0.421432	28.838184
5169.000000	0.358492	0.347294	19.286409
5170.000000	0.374689	0.368791	17.769366
5171.000000	0.388024	0.379426	13.284629
5172.000000	0.361477	0.352996	14.717517
5173.000000	0.365907	0.370211	15.166299
5174.000000	0.392824	0.370552	11.333913
5175.000000	0.380277	0.356217	21.024127
5176.000000	0.357673	0.343146	11.688625
5177.000000	0.344485	0.334962	9.650172
5178.000000	0.349325	0.326873	18.574445
5179.000000	0.361669	0.379950	11.231484
5180.000000	0.405611	0.433558	10.785148
5181.000000	0.360181	0.347206	9.652708
5182.000000	0.361468	0.318482	7.163400
5183.000000	0.386307	0.362528	3.876383
5184.000000	0.362020	0.363190	8.351807
5185.000000	0.366634	0.315803	2.087236
5186.000000	0.323643	0.330432	3.947855
5187.000000	0.336701	0.308498	8.004366
5188.000000	0.360630	0.325000	4.881485
5189.000000	0.329251	0.302152	12.997036
5190.000000	0.314019	0.292887	8.661547
5191.000000	0.363609	0.356111	5.806676
5192.000000	0.373988	0.347346	11.170837
5193.000000	0.348854	0.311536	12.958442
5194.000000	0.340128	0.340992	6.334903
5195.000000	0.341377	0.318709	6.226460
5196.000000	0.355532	0.330193	6.632258
5197.000000	0.348678	0.399355	6.330849
5198.000000	0.337783	0.323161	8.594651
5199.000000	0.379080	0.362702	5.428596
5200.000000	0.325400	0.351216	5.065940
5201.000000	0.311216	0.323554	5.509874
5202.000000	0.319911	0.353627	3.855047
5203.000000	0.292891	0.287714	3.142983
5204.000000	0.318030	0.300749	3.456899
5205.000000	0.307144	0.300519	2.134225
5206.000000	0.325830	0.360577	1.603241
5207.000000	0.372390	0.369838	1.521691
5208.000000	0.371543	0.357923	1.851105
5209.000000	0.315593	0.343451	1.334950
5210.000000	0.325597	0.333749	1.878675
5211.000000	0.345737	0.373875	1.752547
5212.000000	0.355935	0.354842	1.230018
5213.000000	0.314125	0.292580	1.970174
5214.000000	0.343253	0.355275	2.613617
5215.000000	0.344033	0.345518	1.396489
5216.000000	0.313613	0.326312	2.858511
5217.000000	0.332980	0.337383	5.045686
5218.000000	0.304435	0.308298	3.431476
5219.000000	0.325507	0.352141	3.651781
5220.000000	0.332603	0.297507	12.260800
5221.000000	0.293092	0.291972	7.492459
5222.000000	0.339165	0.320845	9.343818
5223.000000	0.343262	0.328372	26.621003
5224.000000	0.352026	0.323957	7.117450
5225.000000	0.307601	0.301672	19.745609
5226.000000	0.308242	0.277627	16.319640
5227.000000	0.351549	0.364522	9.030280
5228.000000	0.303729	0.339779	22.782324
5229.000000	0.324740	0.316895	20.825881
5230.000000	0.324405	0.294946	11.997431
5231.000000	0.289796	0.290440	30.260873
5232.000000	0.293239	0.289562	31.325765
5233.000000	0.321740	0.344497	29.663547
5234.000000	0.312768	0.324325	54.666185
5235.000000	0.323564	0.346387	36.066583
5236.000000	0.306641	0.355432	51.319812
5237.000000	0.286983	0.281909	78.580932
5238.000000	0.290265	0.279747	36.613490
5239.000000	0.339151	0.322460	81.357695
5240.000000	0.278130	0.285044	71.965848
5241.000000	0.322754	0.358951	46.898930
5242.000000	0.321939	0.343603	79.601061
5243.000000	0.313088	0.305765	57.936541
5244.000000	0.324638	0.330710	52.503806
5245.000000	0.276658	0.312005	98.381344
5246.000000	0.273055	0.290799	45.560110
5247.000000	0.330998	0.314965	70.983135
5248.000000	0.342165	0.374097	97.784837
5249.000000	0.322372	0.331561	32.059815
5250.000000	0.283976	0.269111	57.163708
5251.000000	0.338023	0.364455	68.135757
5252.000000	0.339095	0.358888	37.148987
5253.000000	0.299932	0.303554	88.191838
5254.000000	0.331964	0.323744	64.718944
5255.000000	0.331258	0.330472	54.904436
5256.000000	0.261495	0.264663	74.596998
5257.000000	0.317614	0.290091	43.172709
5258.000000	0.282451	0.271280	43.188088
5259.000000	0.306434	0.285223	48.789062
5260.000000	0.379742	0.413518	30.547295
5261.000000	0.321285	0.313236	49.469188
5262.000000	0.276827	0.262959	58.578657
5263.000000	0.329304	0.351997	24.549136
5264.000000	0.310792	0.299198	62.232366
5265.000000	0.321383	0.353533	57.086785
5266.000000	0.296476	0.284137	38.833197
5267.000000	0.312944	0.313575	66.070979
5268.000000	0.283579	0.286343	61.890578
5269.000000	0.308311	0.302504	57.093449
5270.000000	0.308482	0.309265	114.298986
5271.000000	0.324593	0.311761	78.071104
5272.000000	0.307497	0.335250	115.115674
5273.000000	0.308344	0.319650	155.510686
5274.000000	0.298491	0.314096	79.071803
5275.000000	0.310441	0.325813	151.524528
5276.000000	0.337941	0.362366	167.252580
5277.000000	0.330254	0.313219	102.486214
5278.000000	0.324610	0.337153	174.990864
5279.000000	0.316745	0.291714	136.442260
5280.000000	0.265048	0.232654	109.332247
5281.000000	0.349237	0.330244	143.610214
5282.000000	0.300627	0.284089	101.264521
5283.000000	0.286524	0.270122	102.576182
5284.000000	0.309591	0.299111	140.346702
5285.000000	0.287801	0.298173	72.334606
5286.000000	0.314829	0.310318	122.540636
5287.000000	0.306295	0.308737	143.811860
5288.000000	0.298622	0.276810	78.499299
5289.000000	0.304119	0.306899	138.282987
5290.000000	0.240739	0.246381	137.192845
5291.000000	0.265331	0.238870	97.794919
5292.000000	0.266644	0.280995	200.168855
5293.000000	0.276358	0.274716	155.408941
5294.000000	0.303193	0.274859	130.688796
5295.000000	0.282643	0.289514	240.203035
5296.000000	0.278321	0.286965	130.446439
5297.000000	0.294629	0.288011	197.316880
5298.000000	0.275972	0.292851	203.166135
5299.000000	0.287706	0.270005	109.290569
5300.000000	0.297651	0.301509	161.579173
5301.000000	0.290970	0.253461	166.004743
5302.000000	0.315734	0.258926	77.906370
5303.000000	0.259031	0.257515	136.859423
5304.000000	0.270800	0.269464	112.082825
5305.000000	0.258803	0.238849	73.678155
5306.000000	0.265241	0.247768	124.493887
5307.000000	0.307348	0.288699	86.688369
5308.000000	0.279414	0.264230	88.672101
5309.000000	0.238389	0.236069	112.007279
5310.000000	0.272625	0.271416	64.899224
5311.000000	0.244545	0.244932	133.052997
5312.000000	0.255944	0.236599	146.786747
5313.000000	0.268910	0.253147	82.542224
5314.000000	0.282483	0.262563	166.820896
5315.000000	0.267396	0.248707	163.929868
5316.000000	0.286344	0.307439	118.393040
5317.000000	0.219952	0.231385	201.955668
5318.000000	0.246945	0.231945	152.533265
5319.000000	0.264177	0.233737	114.599957
5320.000000	0.231302	0.221232	225.826447
5321.000000	0.247376	0.247759	116.902640
5322.000000	0.245513	0.278800	152.861988
5323.000000	0.287246	0.291805	203.608714
5324.000000	0.278156	0.284913	94.337140
5325.000000	0.253899	0.236514	172.789519
5326.000000	0.228394	0.233807	154.784288
5327.000000	0.270967	0.286205	80.700683
5328.000000	0.240376	0.252406	124.375778
5329.000000	0.233175	0.224620	104.091872
5330.000000	0.241872	0.244166	65.846445
5331.000000	0.246775	0.222521	121.852920
5332.000000	0.245972	0.238895	90.809063
5333.000000	0.264020	0.251174	135.397731
5334.000000	0.254555	0.250499	181.129774
5335.000000	0.237251	0.224626	103.546564
5336.000000	0.291390	0.302069	186.868813
5337.000000	0.233899	0.240700	203.913955
5338.000000	0.256772	0.265589	92.533217
5339.000000	0.260735	0.227255	210.353486
5340.000000	0.235797	0.260088	199.850374
5341.000000	0.241117	0.227174	147.296670
5342.000000	0.245772	0.248283	263.278333
5343.000000	0.223527	0.211126	221.093174
5344.000000	0.206830	0.199490	163.509509
5345.000000	0.227954	0.211363	288.953379
5346.000000	0.242594	0.274109	168.354013
5347.000000	0.235292	0.236468	237.929519
5348.000000	0.207162	0.204089	284.882223
5349.000000	0.248051	0.253335	161.562392
5350.000000	0.218861	0.197468	285.162216
5351.000000	0.215612	0.220354	309.320337
5352.000000	0.267353	0.257353	159.295051
5353.000000	0.232647	0.223662	292.239766
5354.000000	0.240750	0.250714	204.570523
5355.000000	0.222014	0.229448	173.034360
5356.000000	0.217600	0.201950	241.637594
5357.000000	0.226490	0.229513	166.054217
5358.000000	0.230640	0.231006	156.632644
5359.000000	0.238304	0.221388	210.595039
5360.000000	0.215021	0.209686	98.185422
5361.000000	0.220537	0.212959	144.048995
5362.000000	0.219874	0.220267	195.947617
5363.000000	0.220819	0.264611	97.088570
5364.000000	0.215164	0.216809	190.017998
5365.000000	0.209528	0.212619	183.975759
5366.000000	0.231560	0.248861	120.537425
5367.000000	0.209282	0.204252	244.077299
5368.000000	0.219494	0.212032	174.263253
5369.000000	0.198106	0.178874	161.615431
5370.000000	0.232747	0.207330	244.936716
5371.000000	0.215497	0.206786	121.390334
5372.000000	0.231253	0.193974	181.392964
5373.000000	0.196876	0.190266	204.489598
5374.000000	0.194943	0.209914	101.390772
5375.000000	0.199858	0.196245	161.598842
5376.000000	0.214386	0.193647	183.209594
5377.000000	0.244426	0.225986	98.450770
5378.000000	0.200179	0.204120	180.460133
5379.000000	0.192661	0.192253	147.807406
5380.000000	0.219867	0.220743	116.128876
5381.000000	0.206726	0.190946	169.564382
5382.000000	0.250674	0.230513	122.412023
5383.000000	0.229688	0.222711	110.286524
5384.000000	0.216683	0.219720	154.849629
5385.000000	0.236917	0.243320	70.236122
5386.000000	0.228473	0.212465	114.248391
5387.000000	0.229676	0.210531	110.706691
5388.000000	0.217265	0.206867	43.313918
5389.000000	0.202665	0.205589	63.657711
5390.000000	0.184608	0.189609	56.066578
5391.000000	0.217097	0.194640	30.492986
5392.000000	0.218178	0.210727	61.698601
5393.000000	0.197104	0.181922	45.521046
5394.000000	0.199408	0.192502	30.874797
5395.000000	0.234270	0.204761	52.922057
5396.000000	0.221685	0.202626	37.165210
5397.000000	0.220274	0.209203	47.009219
5398.000000	0.191432	0.189157	53.508389
5399.000000	0.214137	0.210687	28.546908
5400.000000	0.214377	0.216302	57.790948
5401.000000	0.220429	0.248671	63.337148
5402.000000	0.201233	0.178888	44.614816
5403.000000	0.181808	0.170555	76.689529
5404.000000	0.201419	0.216508	73.372848
5405.000000	0.228636	0.210845	57.109829
5406.000000	0.194664	0.195496	97.952457
5407.000000	0.199626	0.200643	58.748319
5408.000000	0.207513	0.251224	65.445445
5409.000000	0.205423	0.209657	74.843504
5410.000000	0.199941	0.190607	35.719678
5411.000000	0.205774	0.206383	59.861772
5412.000000	0.200253	0.219291	74.701430
5413.000000	0.222133	0.216759	32.628012
5414.000000	0.214709	0.219861	75.182415
5415.000000	0.194816	0.192396	68.983657
5416.000000	0.203715	0.207027	53.610086
5417.000000	0.229186	0.223378	92.334802
5418.000000	0.219531	0.214234	50.086254
5419.000000	0.218114	0.196867	46.183040
5420.000000	0.222874	0.237640	63.148321
5421.000000	0.197005	0.174611	32.708174
5422.000000	0.244253	0.231777	34.724123
5423.000000	0.220152	0.220108	47.106628
5424.000000	0.198461	0.208587	15.449197
5425.000000	0.208530	0.190093	32.113711
5426.000000	0.218135	0.226255	30.350478
5427.000000	0.175038	0.188361	18.538062
5428.000000	0.192601	0.207443	32.112008
5429.000000	0.193794	0.187569	31.381171
5430.000000	0.186375	0.200563	25.984804
5431.000000	0.208493	0.205997	33.893871
5432.000000	0.227493	0.237361	32.172910
5433.000000	0.197135	0.191323	30.330049
5434.000000	0.210097	0.201500	34.747737
5435.000000	0.204716	0.197955	21.606350
5436.000000	0.205517	0.186169	28.469577
5437.000000	0.185895	0.201296	38.477854
5438.000000	0.187250	0.181117	14.935297
5439.000000	0.192137	0.170166	22.733387
5440.000000	0.171368	0.170526	21.973155
5441.000000	0.171647	0.193128	11.505014
5442.000000	0.201409	0.204471	21.325957
5443.000000	0.198962	0.196059	10.558237
5444.000000	0.186841	0.180837	6.608623
5445.000000	0.198695	0.180711	11.587557
5446.000000	0.180587	0.165674	6.427780
5447.000000	0.210799	0.202811	7.956548
5448.000000	0.186929	0.178852	8.010746
5449.000000	0.226326	0.210878	4.277076
5450.000000	0.186478	0.172058	7.470053
5451.000000	0.170530	0.150917	5.245059
5452.000000	0.162760	0.164453	3.686665
5453.000000	0.186360	0.185062	12.789345
5454.000000	0.177274	0.165212	6.220008
5455.000000	0.177321	0.179769	11.108843
5456.000000	0.184815	0.178992	15.321184
5457.000000	0.195847	0.187402	12.005244
5458.000000	0.193233	0.201666	11.303817
5459.000000	0.175049	0.170006	13.887780
5460.000000	0.187112	0.179333	7.155750
5461.000000	0.188995	0.203750	16.036806
5462.000000	0.194323	0.189466	16.934103
5463.000000	0.169967	0.178121	9.412671
5464.000000	0.184047	0.176300	17.362583
5465.000000	0.166829	0.157795	19.986247
5466.000000	0.187286	0.172483	9.391869
5467.000000	0.159295	0.151807	17.415247
5468.000000	0.169343	0.171252	7.874543
5469.000000	0.161085	0.156604	5.581098
5470.000000	0.171862	0.188914	12.205125
5471.000000	0.155150	0.159474	5.902765
5472.000000	0.179550	0.173559	6.125498
5473.000000	0.182389	0.155395	11.010983
5474.000000	0.171178	0.172535	4.805219
5475.000000	0.156846	0.157887	3.971700
5476.000000	0.160206	0.152428	5.637228
5477.000000	0.167539	0.174020	2.335146
5478.000000	0.175285	0.205568	2.368060
5479.000000	0.148795	0.156211	2.328626
5480.000000	0.158783	0.156931	0.935183
5481.000000	0.175225	0.164318	4.595265
5482.000000	0.168448	0.169342	1.948909
5483.000000	0.138256	0.135328	2.673692
5484.000000	0.152140	0.162059	1.462044
5485.000000	0.164653	0.185747	0.920717
5486.000000	0.150086	0.144040	0.991802
5487.000000	0.163434	0.171055	0.728017
5488.000000	0.156807	0.162964	0.555980
5489.000000	0.147890	0.147784	1.543312
5490.000000	0.142627	0.130996	1.760097
5491.000000	0.158495	0.152859	0.820012
5492.000000	0.153368	0.157249	3.148418
5493.000000	0.156883	0.150984	5.462402
5494.000000	0.159598	0.146328	4.582837
5495.000000	0.148582	0.158836	6.043913
5496.000000	0.133908	0.135313	5.117389
5497.000000	0.156445	0.162523	7.864297
5498.000000	0.170064	0.165633	10.860812
5499.000000	0.168411	0.164619	3.970844
5500.000000	0.153057	0.150558	10.178362
5501.000000	0.152939	0.150308	9.761255
