

# Power 3dB lower
# Scan parameters: power 16.000000 dBm, bandwidth 1.500000 Hz
# Frequency [MHz]	avg noise	std noise	peak value
3851.000000	14.457655	14.372749	1555.928715
3853.000000	17.885915	16.316605	1638.442359
3855.000000	16.518351	16.686800	1847.308825
3857.000000	16.526172	15.857191	1050.983222
3859.000000	15.826299	16.579719	2150.569718
3861.000000	15.455864	15.628540	2547.135705
3863.000000	19.404555	20.078665	1400.191325
3865.000000	17.601244	19.055157	2358.602077
3867.000000	18.250052	18.055626	2808.772498
3869.000000	20.293016	18.929054	1882.909491
3871.000000	19.870858	18.612625	1278.718087
3873.000000	19.016298	19.991907	2133.923263
3875.000000	60.742237	54.384765	1914.215637
3877.000000	24.778725	22.266195	1640.643401
3879.000000	22.746343	22.614129	2325.890843
3881.000000	22.172688	20.968852	2997.404407
3883.000000	22.627829	24.351923	2585.673395
3885.000000	20.251500	19.213178	1486.725862
3887.000000	28.248080	24.860172	3980.011538
3889.000000	22.213860	22.074453	3834.305656
3891.000000	26.421622	26.214881	2871.062351
3893.000000	24.654229	29.299542	3051.578831
3895.000000	23.697243	23.418231	4159.211812
3897.000000	28.191753	28.916391	3907.989782
3899.000000	26.144775	26.923543	1719.891500
3901.000000	28.107306	27.219786	3415.095252
3903.000000	29.038663	27.126687	2918.711968
3905.000000	28.690636	29.350074	2005.797805
3907.000000	31.166924	31.767905	2459.758558
3909.000000	32.316107	30.372783	3222.404829
3911.000000	31.642341	29.303999	2503.736468
3913.000000	30.375802	29.051158	1522.488829
3915.000000	30.498692	29.289049	2878.921460
3917.000000	31.754619	29.251749	2943.459490
3919.000000	31.744212	34.439961	2076.511079
3921.000000	26.838567	28.723005	1643.508950
3923.000000	28.089098	29.594231	1959.971797
3925.000000	32.231758	31.017534	1718.762120
3927.000000	27.018250	28.235198	1007.895255
3929.000000	35.456228	38.208068	1731.217254
3931.000000	30.692141	27.423973	1770.127149
3933.000000	30.800558	33.225355	1060.393970
3935.000000	34.344538	35.414531	480.399341
3937.000000	34.203036	33.049004	683.430197
3939.000000	26.998233	24.536651	216.384099
3941.000000	33.751529	38.575643	338.335223
3943.000000	27.267465	27.504327	961.187197
3945.000000	26.449561	24.147498	1078.311886
3947.000000	28.449668	30.553775	1102.904523
3949.000000	27.405131	26.931427	919.871733
3951.000000	28.700393	28.129797	2370.577951
3953.000000	23.604437	22.195497	2764.933704
3955.000000	22.637572	21.974754	2083.953528
3957.000000	22.807769	21.557557	2519.724480
3959.000000	25.623391	24.808021	2702.953782
3961.000000	22.525565	20.429872	2720.724437
3963.000000	23.291173	20.718582	1743.389901
3965.000000	23.589338	20.143054	2680.144122
3967.000000	20.941690	22.789391	3607.529166
3969.000000	21.512989	22.096587	3460.241725
3971.000000	18.178261	18.050562	2028.599493
3973.000000	17.770776	19.385409	2738.608077
3975.000000	16.245659	16.819758	3572.629146
3977.000000	19.714409	19.758648	1863.049369
3979.000000	17.773145	16.647853	3037.479180
3981.000000	16.918995	17.146560	3206.067971
3983.000000	17.422208	18.013238	2456.724733
3985.000000	20.159769	20.372033	1635.089517
3987.000000	17.302034	18.279458	4454.868641
3989.000000	20.107814	19.133073	4219.629019
3991.000000	18.746785	17.430199	3613.201295
3993.000000	23.192736	23.236032	5104.769717
3995.000000	20.714119	20.704757	7808.334637
3997.000000	23.026935	19.819245	8156.334341
3999.000000	19.652416	23.085195	4014.378183
4001.000000	21.895154	23.311085	10628.527953
4003.000000	22.346965	21.409299	9683.748394
4005.000000	20.112788	21.825866	6445.946560
4007.000000	23.186105	21.503768	6553.800795
4009.000000	20.747277	21.697572	8472.536733
4011.000000	22.982853	26.281087	7219.877337
4013.000000	24.800681	22.743229	2932.686433
4015.000000	23.428377	21.413298	5889.489744
4017.000000	21.181746	18.425693	7088.281787
4019.000000	25.620081	24.705057	4654.805444
4021.000000	22.550963	22.616771	3425.775080
4023.000000	28.880065	26.465899	4577.751996
4025.000000	26.629553	26.910263	4209.401573
4027.000000	25.956841	24.139168	3619.465296
4029.000000	29.521693	27.865585	4920.777442
4031.000000	28.350644	29.909059	7225.960612
4033.000000	26.640070	25.788704	4440.804807
4035.000000	29.671913	29.866263	3112.603605
4037.000000	31.326327	29.575415	3926.534256
4039.000000	35.242009	38.600079	3898.464654
4041.000000	36.049376	40.024080	1993.194362
4043.000000	38.481773	35.137825	2110.628676
4045.000000	39.218692	41.949257	3317.342303
4047.000000	35.525116	32.535520	3045.490960
4049.000000	43.427960	44.034079	1885.027653
4051.000000	40.718087	41.891458	2913.917334
4053.000000	38.134746	40.051378	2547.058209
4055.000000	43.809333	41.696308	1334.726582
4057.000000	42.359754	37.477767	821.125249
4059.000000	44.532916	48.510538	1697.287591
4061.000000	45.110554	47.859651	1540.336734
4063.000000	47.818718	39.052867	611.684861
4065.000000	38.736689	39.214846	1528.797175
4067.000000	38.808095	40.457476	1559.423005
4069.000000	49.207775	47.978695	866.142237
4071.000000	41.216331	39.107640	532.306861
4073.000000	45.058305	42.650611	470.681104
4075.000000	42.859313	39.943477	830.670370
4077.000000	41.232875	42.016316	479.507959
4079.000000	41.441540	41.323273	642.450904
4081.000000	36.681874	34.036299	1665.024554
4083.000000	38.846199	36.074098	1009.091371
4085.000000	38.060058	42.559265	1230.072918
4087.000000	35.576684	32.668386	1325.777155
4089.000000	35.393350	32.494972	1238.841085
4091.000000	34.595126	35.591476	865.017657
4093.000000	31.010038	29.929908	1674.489369
4095.000000	32.725785	33.249536	2335.415593
4097.000000	28.901746	29.076512	1754.372820
4099.000000	30.736865	30.583452	1447.154672
4101.000000	27.939666	26.605242	2822.932606
4103.000000	30.002229	30.235525	3580.801735
4105.000000	24.089500	23.768365	2452.253249
4107.000000	30.218906	30.342500	1807.634202
4109.000000	26.124138	27.823746	2797.154949
4111.000000	24.592225	25.912604	2354.581424
4113.000000	23.550404	22.617819	1179.721911
4115.000000	24.611931	23.861169	1851.162390
4117.000000	21.245049	22.103888	2461.912078
4119.000000	19.408653	17.623575	1724.854079
4121.000000	21.212424	21.160294	1097.707987
4123.000000	18.583772	18.938582	1448.959839
4125.000000	16.094761	15.326605	1338.059328
4127.000000	19.016677	20.388060	514.702630
4129.000000	15.922391	17.302407	1136.627378
4131.000000	16.921623	17.035463	1260.898653
4133.000000	15.977417	15.323266	1137.527304
4135.000000	15.653185	15.344268	612.366395
4137.000000	16.187780	14.615162	1082.136954
4139.000000	13.975092	13.374709	1332.721991
4141.000000	12.700836	11.950431	764.201100
4143.000000	12.197008	13.316056	878.965908
4145.000000	12.614680	13.524126	1076.599210
4147.000000	11.477614	9.997588	744.929238
4149.000000	11.121014	11.059580	292.713698
4151.000000	10.561379	10.878655	523.973420
4153.000000	9.674268	9.373480	753.312799
4155.000000	10.740290	10.021369	354.773626
4157.000000	12.397851	12.119038	351.699704
4159.000000	10.824047	11.528444	284.085307
4161.000000	9.477080	8.855140	274.874914
4163.000000	9.523276	9.993787	159.674268
4165.000000	9.960591	10.137053	313.056628
4167.000000	9.528781	8.551457	130.626742
4169.000000	8.948461	8.314595	134.537041
4171.000000	9.391273	8.141822	61.570763
4173.000000	9.631182	9.906193	111.975617
4175.000000	9.688849	11.423658	82.879297
4177.000000	10.273988	10.008071	47.092650
4179.000000	10.563024	10.415913	86.623585
4181.000000	11.442053	12.942716	93.747512
4183.000000	10.973592	10.659321	49.878210
4185.000000	14.157915	14.367058	51.089142
4187.000000	14.024663	15.510378	53.430853
4189.000000	13.254874	13.891946	86.780946
4191.000000	19.597376	18.671525	103.745903
4193.000000	17.852795	18.092312	143.805946
4195.000000	27.209943	28.306174	241.597607
4197.000000	34.882664	30.674700	194.897714
4199.000000	32.600265	34.278187	166.084841
4201.000000	16.212912	18.015241	267.228248
4203.000000	16.070453	16.389532	113.179000
4205.000000	16.247538	15.942039	54.782058
4207.000000	16.508426	14.260929	111.143542
4209.000000	16.782002	16.688014	125.877395
4211.000000	19.607656	17.070650	113.683376
4213.000000	19.043510	19.400340	130.260904
4215.000000	24.369967	23.195303	331.069187
4217.000000	28.081689	29.113020	107.285524
4219.000000	30.620569	33.404358	132.826706
4221.000000	30.631177	30.959154	173.865347
4223.000000	40.488923	38.437483	355.538118
4225.000000	24.192912	25.369064	313.326008
4227.000000	27.992081	29.991461	130.914392
4229.000000	32.540708	32.766604	328.053387
4231.000000	32.164224	32.808472	197.631702
4233.000000	26.904141	28.156032	237.166295
4235.000000	24.408725	23.734157	128.241424
4237.000000	20.358191	20.525453	429.163947
4239.000000	18.509643	18.503380	134.189012
4241.000000	14.694286	14.325758	244.792941
4243.000000	14.762405	15.129045	234.178161
4245.000000	17.832324	18.062613	185.002661
4247.000000	16.249750	14.590582	152.690543
4249.000000	17.954256	18.394541	78.456576
4251.000000	12.491274	12.337534	199.331834
4253.000000	13.530202	12.755780	210.636349
4255.000000	13.596869	12.861939	279.042504
4257.000000	15.250807	14.663630	157.628659
4259.000000	15.316788	16.312181	215.295390
4261.000000	12.466619	12.360266	155.972481
4263.000000	12.035301	11.667355	107.158041
4265.000000	13.474639	14.462605	156.384298
4267.000000	11.633669	11.093741	211.007992
4269.000000	11.735808	11.479269	95.585189
4271.000000	13.117605	13.036273	107.031804
4273.000000	13.392525	13.276397	230.873867
4275.000000	13.194439	13.586317	327.634974
4277.000000	11.682419	10.413810	192.040406
4279.000000	11.094332	10.990796	121.058219
4281.000000	11.812804	13.697538	128.090835
4283.000000	11.118311	12.120437	166.035699
4285.000000	11.059556	11.379684	146.942635
4287.000000	11.127066	9.730187	223.300002
4289.000000	11.444265	10.506839	35.064471
4291.000000	9.674891	9.301065	87.246448
4293.000000	10.599951	9.942274	51.626576
4295.000000	9.489529	9.022470	268.871013
4297.000000	9.267488	9.831483	191.357196
4299.000000	8.569618	8.052511	132.387343
4301.000000	9.320713	9.969103	245.680872
4303.000000	9.092530	9.620645	258.510019
4305.000000	8.945087	9.031277	259.757800
4307.000000	9.754840	9.112894	317.362402
4309.000000	9.111448	9.559088	406.173831
4311.000000	9.674448	9.475758	366.468153
4313.000000	9.706308	9.146089	301.200282
4315.000000	10.696119	9.975525	533.095354
4317.000000	9.594648	8.946125	492.777918
4319.000000	12.340539	11.252045	516.158730
4321.000000	11.254812	11.552746	280.735037
4323.000000	11.550167	11.934674	744.598137
4325.000000	12.341517	11.946417	807.728547
4327.000000	11.860906	14.076755	361.758079
4329.000000	12.788044	12.660774	572.082325
4331.000000	11.288155	10.804781	1126.637472
4333.000000	11.600595	12.646047	900.424374
4335.000000	10.542861	9.923812	637.918976
4337.000000	11.702382	10.277012	1168.979493
4339.000000	12.107053	12.064627	1095.209021
4341.000000	12.713970	13.294346	649.177597
4343.000000	13.033565	13.372743	801.755900
4345.000000	11.205962	11.782315	852.040829
4347.000000	12.246569	11.215792	798.364659
4349.000000	12.152164	11.501505	313.236002
4351.000000	11.533732	9.754437	1067.604418
4353.000000	12.809583	12.265459	755.450196
4355.000000	12.758784	13.916176	475.007907
4357.000000	9.847324	8.767406	522.203454
4359.000000	11.027274	11.624177	622.346065
4361.000000	10.231366	10.866305	599.170590
4363.000000	10.936957	9.602432	403.362850
4365.000000	11.713772	11.057426	421.362455
4367.000000	11.456535	11.089132	578.085925
4369.000000	10.369141	10.298538	364.193137
4371.000000	9.651119	8.665883	275.896473
4373.000000	10.277978	10.313192	561.897332
4375.000000	9.395907	9.255610	325.785497
4377.000000	10.570710	11.869335	191.258233
4379.000000	8.559288	9.441759	279.483978
4381.000000	9.192132	9.658511	294.334704
4383.000000	9.208551	8.519054	115.296428
4385.000000	7.683780	7.313049	211.610486
4387.000000	9.086582	9.578277	331.899383
4389.000000	9.056803	9.050652	399.900699
4391.000000	9.071885	8.183411	126.096754
4393.000000	11.111713	10.520053	250.083409
4395.000000	8.462678	9.412331	397.962258
4397.000000	9.311970	8.678185	391.429291
4399.000000	9.360738	9.095990	278.200941
4401.000000	9.911956	9.870154	470.042865
4403.000000	10.741444	12.407229	471.372122
4405.000000	11.323778	10.651625	239.821879
4407.000000	9.742915	9.598852	541.807344
4409.000000	11.641214	11.991966	568.364109
4411.000000	10.727542	9.478013	524.070853
4413.000000	9.883884	10.044358	203.333823
4415.000000	10.303418	11.244980	467.947962
4417.000000	10.059310	9.509777	510.157912
4419.000000	10.702805	9.984369	309.747273
4421.000000	11.442970	10.197127	237.897509
4423.000000	11.142549	11.515603	517.394747
4425.000000	11.519101	11.520933	370.404856
4427.000000	12.901461	10.991342	191.323780
4429.000000	11.547896	11.743362	352.025375
4431.000000	12.225431	12.978940	363.719437
4433.000000	13.358290	12.730852	234.822906
4435.000000	14.882625	13.846493	302.634344
4437.000000	12.987012	12.424257	299.818990
4439.000000	14.527619	14.582939	344.452653
4441.000000	14.281904	15.455822	308.339431
4443.000000	14.878461	13.687588	236.267314
4445.000000	14.275485	14.256035	404.360280
4447.000000	15.147462	15.054499	364.612383
4449.000000	16.676573	14.192551	273.281710
4451.000000	14.664444	13.956744	381.182009
4453.000000	15.273711	14.420329	484.319733
4455.000000	14.672663	14.669414	227.999740
4457.000000	17.173134	17.877708	196.995617
4459.000000	15.238441	16.161688	398.869221
4461.000000	15.119828	14.347777	313.732407
4463.000000	15.672105	16.070376	202.650986
4465.000000	14.898983	15.201256	387.921491
4467.000000	13.685962	13.831693	478.089478
4469.000000	15.517013	15.236597	236.607493
4471.000000	15.433752	14.018265	196.192473
4473.000000	15.497163	16.731005	405.964752
4475.000000	14.151901	13.221306	255.607705
4477.000000	13.384504	13.574021	144.970962
4479.000000	13.294566	12.545899	327.953871
4481.000000	13.084744	11.650041	253.452614
4483.000000	12.241161	11.519636	127.661424
4485.000000	13.192135	13.533812	101.199797
4487.000000	11.486968	11.336744	469.592463
4489.000000	12.088541	11.221715	401.723061
4491.000000	11.449107	10.718704	146.857002
4493.000000	10.522340	9.913455	183.793198
4495.000000	10.425884	9.558814	129.062293
4497.000000	9.407446	9.851216	115.298681
4499.000000	10.102514	11.551593	89.603737
4501.000000	8.647102	7.960278	52.887665
4503.000000	8.655036	8.406807	120.039585
4505.000000	9.653410	9.887600	113.806428
4507.000000	9.023130	8.352093	126.671119
4509.000000	7.477787	6.806798	241.317566
4511.000000	7.688160	6.773643	200.939203
4513.000000	7.390371	7.878552	135.227342
4515.000000	7.749117	6.997740	270.455424
4517.000000	7.042976	7.033259	269.415285
4519.000000	7.011012	7.031491	287.417596
4521.000000	7.351849	7.234818	260.012331
4523.000000	6.418999	6.099098	226.796411
4525.000000	6.449509	6.464892	439.876897
4527.000000	6.969316	6.801871	242.564863
4529.000000	6.175228	6.297895	287.928747
4531.000000	6.031992	6.263851	487.449395
4533.000000	4.983306	5.161234	267.402350
4535.000000	5.055989	4.981826	257.174564
4537.000000	5.315570	4.865137	254.183509
4539.000000	5.303257	4.617125	275.837508
4541.000000	5.189744	5.116422	86.663703
4543.000000	4.634115	4.640226	34.583782
4545.000000	4.713945	4.467566	89.604427
4547.000000	4.636063	4.830880	72.697520
4549.000000	4.545347	4.161912	76.110448
4551.000000	4.943577	4.613538	131.579250
4553.000000	4.756938	5.309621	123.095045
4555.000000	4.341547	4.097787	68.472487
4557.000000	4.433895	4.241045	54.629321
4559.000000	5.102350	5.078690	42.233075
4561.000000	4.428072	4.835986	58.668835
4563.000000	4.642380	4.264097	18.231538
4565.000000	5.478536	5.112015	19.430862
4567.000000	4.581199	4.261187	37.914017
4569.000000	3.943703	3.518898	35.357265
4571.000000	5.073651	4.847653	46.600748
4573.000000	4.638249	4.313463	101.851752
4575.000000	4.307028	4.271210	59.606349
4577.000000	4.960472	4.453951	23.549004
4579.000000	4.722180	5.225673	25.122930
4581.000000	5.348665	5.328828	27.506868
4583.000000	5.496374	4.871451	33.384637
4585.000000	4.959402	4.693251	20.553239
4587.000000	5.048517	4.756099	64.333459
4589.000000	5.351319	5.181184	60.002135
4591.000000	5.498559	5.191814	66.039363
4593.000000	5.468455	5.077267	64.250347
4595.000000	5.585364	5.890545	112.674443
4597.000000	5.813235	6.411655	97.575231
4599.000000	4.681728	5.419725	151.332115
4601.000000	5.869674	6.248375	45.862726
4603.000000	6.002340	5.517781	130.276174
4605.000000	5.327386	5.797183	108.322436
4607.000000	5.646843	5.550879	79.468649
4609.000000	5.586206	5.098068	249.592140
4611.000000	6.770892	7.261033	136.901486
4613.000000	5.832182	5.670743	99.790158
4615.000000	5.741711	5.638548	81.527387
4617.000000	5.676712	4.904116	123.246435
4619.000000	6.231388	5.779284	86.202987
4621.000000	6.640285	7.085113	64.002719
4623.000000	6.580541	6.687224	284.722892
4625.000000	6.219906	6.552806	142.860321
4627.000000	7.034009	7.664832	179.557478
4629.000000	5.722850	5.485580	343.614973
4631.000000	5.844019	5.480272	466.401659
4633.000000	6.457273	6.720163	294.601259
4635.000000	6.782889	6.535213	202.388602
4637.000000	6.005312	5.537332	218.434222
4639.000000	6.419663	6.760728	194.077967
4641.000000	7.193922	7.636743	60.720538
4643.000000	6.741103	6.317338	105.307963
4645.000000	6.106069	5.384698	115.792187
4647.000000	6.903558	6.746973	117.766559
4649.000000	7.822012	8.183942	46.788054
4651.000000	6.789258	6.593582	56.334050
4653.000000	7.377142	6.493992	67.683205
4655.000000	7.016549	7.045789	72.620015
4657.000000	7.557726	7.075206	50.290866
4659.000000	8.618280	7.991159	59.639718
4661.000000	7.545211	7.447732	36.823816
4663.000000	8.409981	8.451626	99.684146
4665.000000	8.187973	8.093381	85.118864
4667.000000	8.124525	8.074455	78.284923
4669.000000	8.513176	8.072458	135.843254
4671.000000	8.967799	7.894011	69.823003
4673.000000	9.267463	8.622059	121.913111
4675.000000	9.460507	9.366973	135.931879
4677.000000	8.953726	9.366342	172.286307
4679.000000	9.376059	9.587260	184.525499
4681.000000	9.059969	9.119801	262.799794
4683.000000	9.179634	9.265043	176.008332
4685.000000	9.432853	8.725765	164.695559
4687.000000	9.411440	9.189331	161.615270
4689.000000	9.465182	9.295110	293.056528
4691.000000	9.890367	9.222181	50.374823
4693.000000	10.163445	10.313873	67.949377
4695.000000	9.033393	9.481608	145.575481
4697.000000	8.917903	8.887391	68.192487
4699.000000	8.540132	8.497116	113.991490
4701.000000	9.988434	9.887249	55.976357
4703.000000	10.110509	10.039700	179.651831
4705.000000	9.922252	10.489085	134.553770
4707.000000	9.562214	9.128117	117.651270
4709.000000	8.399658	8.441924	125.713960
4711.000000	8.705257	8.411011	218.755610
4713.000000	8.907711	8.474192	156.610411
4715.000000	9.886827	10.312578	71.996925
4717.000000	8.103203	8.275103	219.866257
4719.000000	8.660950	8.519982	198.534279
4721.000000	8.866966	8.597121	123.129238
4723.000000	8.498877	8.066776	125.213718
4725.000000	8.157914	7.980899	94.280779
4727.000000	8.447712	8.330327	56.229445
4729.000000	9.107662	8.988537	72.089902
4731.000000	8.742154	8.476875	56.833529
4733.000000	9.728892	9.664838	61.371285
4735.000000	8.040854	8.144068	28.731006
4737.000000	7.456631	7.457388	49.215945
4739.000000	8.860283	9.048668	39.831064
4741.000000	8.446406	9.235047	29.506266
4743.000000	8.271567	8.785106	46.872049
4745.000000	9.222374	8.844654	114.158638
4747.000000	8.583384	8.233465	123.702015
4749.000000	8.574792	8.723598	172.811679
4751.000000	9.054689	10.350077	413.640248
4753.000000	9.297916	8.885555	295.134903
4755.000000	8.389503	7.676986	337.630038
4757.000000	8.605173	9.759542	350.307586
4759.000000	9.377073	9.652080	448.537947
4761.000000	9.238397	9.278135	536.263700
4763.000000	8.766249	8.200606	468.522504
4765.000000	9.580842	9.325487	965.750291
4767.000000	9.105212	9.269051	1304.962452
4769.000000	8.793626	9.106150	1321.328106
4771.000000	8.426239	7.813917	707.294619
4773.000000	10.377534	10.156294	1372.833195
4775.000000	10.191051	9.915117	1340.934629
4777.000000	9.636978	8.965589	951.486844
4779.000000	10.104011	9.768971	1649.424123
4781.000000	9.545964	8.424888	2045.062579
4783.000000	8.891362	9.008493	1744.996228
4785.000000	10.278850	10.155179	1003.402872
4787.000000	10.966594	10.074945	2368.733856
4789.000000	10.798346	9.293356	2396.407555
4791.000000	11.965464	11.253345	1435.811344
4793.000000	11.534294	11.470650	1986.371464
4795.000000	10.913003	11.628539	2544.508573
4797.000000	11.124116	11.864056	1984.043552
4799.000000	10.574702	11.276472	1099.003112
4801.000000	12.873871	12.921403	1758.393684
4803.000000	12.621164	12.988564	2313.828896
4805.000000	13.160211	11.737116	1931.146038
4807.000000	12.440944	11.183314	1825.120425
4809.000000	15.068860	15.625924	2791.026823
4811.000000	13.115074	13.667690	3050.272740
4813.000000	16.147885	13.672024	1012.943138
4815.000000	13.397453	15.074369	1725.058951
4817.000000	14.821810	13.346059	2745.143781
4819.000000	15.395132	16.257640	1690.104678
4821.000000	15.274958	16.921644	1792.640305
4823.000000	15.348983	16.647048	3285.105994
4825.000000	15.856388	16.264220	2579.723975
4827.000000	16.437511	15.678027	2019.535522
4829.000000	17.810997	15.614992	2672.441206
4831.000000	15.379518	13.830631	3623.930192
4833.000000	15.700825	15.214856	3360.078256
4835.000000	16.468830	16.041308	2513.202928
4837.000000	14.932619	15.782662	4530.554896
4839.000000	14.874541	16.351955	3498.034424
4841.000000	15.183406	16.328557	1663.494806
4843.000000	12.418707	12.249051	2617.343887
4845.000000	11.975243	11.959651	2884.430373
4847.000000	13.970028	14.049908	2759.343214
4849.000000	12.236159	11.440062	1129.450267
4851.000000	11.963569	11.362077	2561.362068
4853.000000	11.761587	10.568186	2167.383524
4855.000000	11.440702	14.067872	1329.196907
4857.000000	10.469127	9.542735	1015.761580
4859.000000	11.031067	9.873737	1497.051462
4861.000000	10.842610	10.279325	992.534768
4863.000000	10.728232	10.675410	616.406533
4865.000000	10.057358	11.349869	1150.040108
4867.000000	9.633622	8.566158	1438.078071
4869.000000	8.736475	9.017694	1211.917821
4871.000000	8.788215	9.526132	765.460208
4873.000000	9.232943	8.873666	1060.216416
4875.000000	8.236038	8.287048	1066.326737
4877.000000	8.489766	8.111072	585.963496
4879.000000	8.134826	9.126810	678.593206
4881.000000	7.092410	7.509762	861.481988
4883.000000	7.505646	7.288823	518.477887
4885.000000	7.031787	7.286870	450.449330
4887.000000	6.386925	6.799021	479.926484
4889.000000	6.732056	6.075867	559.910613
4891.000000	5.872473	5.804482	409.893661
4893.000000	5.484080	5.422161	481.786084
4895.000000	5.285886	5.651221	1012.024430
4897.000000	4.769144	5.253370	733.188062
4899.000000	5.233611	5.066221	472.894357
4901.000000	4.252369	4.351735	798.269817
4903.000000	4.523480	4.738736	920.559371
4905.000000	4.834813	4.659471	465.387691
4907.000000	4.815906	5.307692	602.287162
4909.000000	4.363517	4.002234	795.418030
4911.000000	4.686539	4.663949	808.755607
4913.000000	4.155208	4.017594	307.805369
4915.000000	4.079852	4.406773	633.951005
4917.000000	4.004982	4.028427	874.039382
4919.000000	3.669525	3.223133	624.331697
4921.000000	3.853965	3.702851	543.378949
4923.000000	4.106771	3.685025	775.941231
4925.000000	4.028529	3.805380	753.483948
4927.000000	3.516509	3.686051	468.500417
4929.000000	3.943499	3.539308	574.253256
4931.000000	3.981367	3.695750	937.954954
4933.000000	3.982722	4.142737	790.665865
4935.000000	3.638742	3.687821	589.364381
4937.000000	3.562574	3.614391	892.510781
4939.000000	3.882891	3.793147	945.661825
4941.000000	3.776124	3.655625	522.946123
4943.000000	3.974265	3.758633	702.729422
4945.000000	3.471005	3.377009	1124.179912
4947.000000	3.931173	4.034220	645.718070
4949.000000	4.157421	4.048666	427.621165
4951.000000	3.743261	3.529453	887.577926
4953.000000	3.923629	3.870627	1163.059739
4955.000000	4.050611	4.325663	784.348892
4957.000000	3.938149	4.182564	928.707147
4959.000000	4.427698	4.717311	1494.210341
4961.000000	4.364922	4.783828	1373.096967
4963.000000	4.129229	3.917320	920.822013
4965.000000	4.006990	3.625546	1354.100477
4967.000000	4.554744	4.522691	1848.948251
4969.000000	4.852116	4.474086	1144.560118
4971.000000	4.748912	4.588227	869.159739
4973.000000	5.388238	4.904236	1266.252113
4975.000000	4.867883	5.167003	1157.989903
4977.000000	5.363639	4.682672	698.648922
4979.000000	5.731381	6.397753	1009.883489
4981.000000	5.218980	4.904693	1380.178314
4983.000000	5.791273	5.036728	989.579501
4985.000000	5.575732	5.442351	710.357313
4987.000000	6.699588	6.300606	1127.822593
4989.000000	5.832006	5.864036	1135.331748
4991.000000	6.151654	5.874909	919.061905
4993.000000	5.800740	5.204654	757.382108
4995.000000	6.326208	6.845866	1167.738282
4997.000000	6.606171	6.646595	794.693291
4999.000000	7.344933	7.287589	309.958778
5001.000000	6.773547	6.673630	625.123308
5003.000000	6.492041	5.669686	472.296515
5005.000000	7.329841	6.627694	266.912260
5007.000000	6.976228	6.712589	245.319374
5009.000000	7.281925	7.050199	495.533730
5011.000000	7.450159	8.002176	522.735801
5013.000000	7.621815	8.329758	286.272550
5015.000000	8.087448	7.575312	412.624331
5017.000000	7.065296	6.319497	430.598332
5019.000000	7.664505	7.334753	237.276419
5021.000000	7.920855	7.379017	378.481816
5023.000000	7.665642	7.848115	263.648029
5025.000000	6.972050	6.870873	305.617346
5027.000000	7.549762	8.464268	271.242044
5029.000000	6.316106	7.932096	454.055302
5031.000000	7.455464	7.913104	808.545537
5033.000000	7.888496	7.752338	568.902778
5035.000000	8.861330	9.276264	321.352596
5037.000000	8.375576	8.611695	417.433483
5039.000000	8.838457	8.284302	602.065071
5041.000000	8.456459	8.783279	245.761129
5043.000000	7.602768	8.437886	273.949125
5045.000000	8.094189	7.494141	362.434762
5047.000000	8.184568	7.562051	333.718854
5049.000000	8.086639	7.518841	174.545426
5051.000000	9.331407	8.822529	594.463551
5053.000000	8.277877	9.274724	525.521139
5055.000000	8.158772	7.339753	415.242511
5057.000000	7.951251	7.666597	434.378047
5059.000000	8.329801	8.069145	738.243020
5061.000000	7.650841	7.048760	601.066631
5063.000000	8.634207	8.552252	353.562135
5065.000000	8.788084	8.427521	560.300203
5067.000000	6.681341	6.683279	606.579285
5069.000000	8.108883	7.932442	228.902371
5071.000000	8.345591	8.592273	250.269496
5073.000000	7.953880	7.518036	545.504839
5075.000000	7.918669	8.146327	377.999401
5077.000000	7.596311	6.667306	281.670609
5079.000000	8.791654	8.745842	306.601408
5081.000000	6.550777	6.428438	510.911581
5083.000000	8.339653	7.943461	395.376045
5085.000000	8.680625	9.095659	228.661158
5087.000000	7.729259	7.743422	421.547819
5089.000000	8.638164	8.147592	193.001775
5091.000000	7.975742	7.850166	92.880717
5093.000000	7.881546	7.853506	188.520808
5095.000000	7.782187	7.969720	196.799160
5097.000000	7.777754	7.004689	280.197133
5099.000000	7.408344	7.932979	197.692045
5101.000000	8.912086	8.711869	289.667490
5103.000000	8.014681	8.229149	480.523447
5105.000000	8.311643	7.847109	345.664345
5107.000000	7.381944	6.727501	282.446563
5109.000000	7.079398	6.785860	505.094999
5111.000000	8.958798	9.152133	432.539449
5113.000000	7.189961	6.926965	157.666173
5115.000000	8.866942	8.519274	214.278766
5117.000000	8.539036	7.769884	255.386728
5119.000000	8.692804	9.231286	197.027227
5121.000000	9.155032	9.292835	144.303803
5123.000000	10.075263	9.682095	234.001004
5125.000000	9.830459	9.620985	266.912946
5127.000000	9.253369	8.089824	224.535952
5129.000000	9.843623	9.171365	396.963933
5131.000000	10.372591	10.883095	362.978782
5133.000000	9.981558	8.933372	360.991269
5135.000000	11.403508	12.214016	107.933743
5137.000000	10.787407	10.800643	356.568765
5139.000000	12.029001	11.655303	192.576085
5141.000000	10.701117	10.416512	44.318775
5143.000000	11.472970	10.406180	212.853789
5145.000000	11.396298	11.307476	52.989374
5147.000000	12.426681	12.217201	70.458558
5149.000000	13.002903	12.133237	132.782716
5151.000000	13.079636	12.500005	301.836054
5153.000000	12.322886	13.487239	253.796280
5155.000000	12.286134	13.422378	209.617611
5157.000000	13.609954	13.480120	319.906082
5159.000000	14.731812	14.388143	232.562219
5161.000000	15.005581	14.819441	198.835451
5163.000000	13.695780	13.388582	126.066054
5165.000000	12.398064	11.478388	107.506505
5167.000000	14.896988	15.798182	150.256611
5169.000000	15.712629	16.804669	85.311668
5171.000000	15.182575	14.495958	68.805930
5173.000000	13.499241	13.837666	99.251409
5175.000000	15.202758	14.514872	70.624632
5177.000000	14.775483	16.165002	95.557057
5179.000000	16.158247	15.138591	48.472596
5181.000000	15.025858	13.110967	45.928320
5183.000000	16.139153	16.301411	62.491783
5185.000000	13.629320	12.817432	81.548767
5187.000000	15.051692	14.021939	87.017473
5189.000000	15.445784	15.906432	68.684658
5191.000000	13.554353	14.139638	74.004828
5193.000000	15.581228	18.515793	55.126951
5195.000000	15.412105	16.243979	124.797719
5197.000000	15.736982	15.313200	50.261937
5199.000000	13.825395	14.297945	68.368714
5201.000000	14.329745	13.168027	50.596251
5203.000000	12.927309	12.727454	87.624892
5205.000000	13.216875	11.539362	45.147255
5207.000000	15.437701	15.963282	54.190791
5209.000000	14.046339	14.858155	48.245357
5211.000000	13.933701	13.707139	65.707640
5213.000000	13.221744	13.860878	78.132084
5215.000000	12.370216	11.450042	50.777430
5217.000000	11.118438	11.079951	51.427807
5219.000000	10.563547	11.682233	55.042013
5221.000000	11.740836	11.150482	42.186683
5223.000000	11.533791	11.238181	43.330706
5225.000000	12.179483	11.285101	53.359786
5227.000000	10.710632	11.204428	135.955804
5229.000000	11.654631	10.029486	90.784867
5231.000000	11.535708	11.246360	74.604483
5233.000000	10.700309	11.040624	165.913922
5235.000000	10.392519	11.375294	131.459137
5237.000000	10.117603	9.110386	128.101721
5239.000000	9.332212	9.276758	159.263691
5241.000000	10.260153	13.330749	147.605276
5243.000000	9.096350	9.672925	262.453991
5245.000000	9.076713	8.833698	126.149795
5247.000000	7.630026	7.357385	170.723523
5249.000000	9.803584	12.236376	57.591986
5251.000000	8.065853	7.998986	209.239333
5253.000000	7.886155	7.333651	181.884872
5255.000000	8.475070	8.833496	86.339543
5257.000000	8.246094	8.827310	145.615213
5259.000000	6.698236	6.787608	113.351928
5261.000000	8.246268	7.587495	81.293414
5263.000000	7.486218	6.990603	75.709102
5265.000000	6.608953	6.644794	150.243248
5267.000000	7.176215	8.430115	181.834409
5269.000000	5.678416	5.653569	114.219806
5271.000000	6.856267	6.742621	225.175191
5273.000000	6.434514	6.403065	238.728524
5275.000000	5.849946	6.056655	462.250843
5277.000000	6.211375	5.945038	239.387563
5279.000000	5.884819	5.458737	270.640793
5281.000000	5.207352	5.123612	396.180066
5283.000000	5.670179	5.807141	258.877599
5285.000000	5.460106	5.049064	178.553332
5287.000000	4.427409	5.135224	413.632357
5289.000000	4.504082	4.379381	364.775059
5291.000000	4.702990	4.659001	271.144245
5293.000000	4.672943	4.795461	396.287267
5295.000000	4.349777	4.283032	541.634777
5297.000000	4.241293	4.371837	389.114968
5299.000000	3.797355	3.800698	279.076806
5301.000000	4.263697	4.358947	320.091758
5303.000000	3.795239	4.037885	273.360412
5305.000000	3.577703	3.837713	208.711083
5307.000000	3.839241	3.756223	202.191439
5309.000000	3.347249	3.644405	355.277642
5311.000000	3.571968	3.572573	290.143627
5313.000000	3.630658	3.170738	186.317366
5315.000000	3.369392	3.263245	337.874479
5317.000000	3.466955	3.433668	370.024417
5319.000000	3.406417	3.434758	382.199211
5321.000000	2.928436	2.555022	304.847643
5323.000000	3.316547	3.324112	387.448433
5325.000000	3.580451	3.867674	278.763133
5327.000000	3.648594	3.717230	108.551564
5329.000000	3.126499	3.350714	343.890666
5331.000000	3.183558	3.235082	347.127561
5333.000000	3.812115	3.829626	308.977396
5335.000000	3.212670	3.376985	189.752942
5337.000000	3.540068	3.112081	464.143703
5339.000000	3.372157	3.648606	530.606825
5341.000000	3.428169	3.629393	378.042106
5343.000000	3.244523	3.018567	478.686639
5345.000000	3.318207	3.280568	722.743389
5347.000000	3.246807	3.326528	582.940180
5349.000000	3.519196	3.297317	349.494127
5351.000000	3.628539	3.053288	618.597979
5353.000000	3.215295	3.367554	629.082617
5355.000000	3.566601	3.375794	296.602904
5357.000000	3.656604	4.058890	347.306725
5359.000000	3.548713	3.561114	462.350455
5361.000000	3.524002	3.676653	327.046208
5363.000000	3.829216	4.143726	240.009070
5365.000000	4.384062	4.285152	445.849550
5367.000000	3.092851	3.427616	527.987123
5369.000000	3.360607	3.265566	340.458078
5371.000000	3.857712	3.683201	288.746200
5373.000000	3.643741	3.247558	448.116514
5375.000000	4.403677	4.247200	419.282557
5377.000000	4.473285	4.633183	256.747978
5379.000000	4.568935	4.516752	328.071906
5381.000000	3.864888	4.255597	460.529576
5383.000000	4.852558	4.390325	342.264975
5385.000000	4.117264	4.147169	187.389789
5387.000000	4.790639	4.790706	240.827378
5389.000000	4.946479	4.638083	277.163603
5391.000000	4.534079	4.659791	59.354283
5393.000000	4.619188	4.618548	94.299446
5395.000000	4.752421	4.533254	166.156706
5397.000000	5.091401	5.388222	145.521274
5399.000000	4.294676	4.621235	68.835681
5401.000000	4.498452	4.907284	172.769182
5403.000000	4.824320	4.366933	154.365921
5405.000000	4.375864	4.355419	178.548170
5407.000000	4.762503	4.253322	167.505543
5409.000000	4.877790	4.518794	149.756771
5411.000000	4.367328	4.544334	249.568443
5413.000000	4.847138	4.875769	104.836400
5415.000000	5.066537	5.628187	204.944497
5417.000000	4.543686	4.548937	128.428662
5419.000000	4.495525	4.764643	101.215931
5421.000000	4.802306	4.561708	73.711928
5423.000000	4.304126	3.975126	73.083950
5425.000000	4.874206	5.612406	108.891447
5427.000000	4.457040	4.095894	51.376895
5429.000000	4.758276	5.223668	49.868880
5431.000000	4.636466	4.164116	159.043743
5433.000000	4.969532	4.473182	70.012007
5435.000000	4.986270	4.886589	39.634198
5437.000000	4.186724	3.678828	117.875221
5439.000000	4.501661	4.753024	20.331272
5441.000000	3.950661	4.519551	28.496983
5443.000000	4.421133	4.225071	27.685860
5445.000000	4.032347	3.853807	23.865856
5447.000000	4.613837	4.787396	17.014926
5449.000000	4.807364	4.507335	22.389977
5451.000000	4.031954	3.669782	19.051453
5453.000000	3.731381	3.667921	14.019180
5455.000000	3.814881	3.969778	29.233050
5457.000000	3.610952	3.870827	27.762062
5459.000000	4.752981	4.671748	37.119119
5461.000000	3.995818	3.665330	54.281170
5463.000000	3.965626	4.087825	24.373671
5465.000000	4.224989	4.215330	29.920105
5467.000000	4.258306	4.273339	25.591835
5469.000000	3.912035	3.427028	19.274507
5471.000000	4.171882	4.415051	21.108149
5473.000000	4.327946	3.722339	25.012091
5475.000000	4.503971	4.764694	21.943953
5477.000000	4.335162	4.310301	34.960671
5479.000000	4.134029	4.319964	29.723314
5481.000000	3.388105	3.456936	20.612240
5483.000000	3.868985	3.901315	13.297248
5485.000000	4.130150	4.408259	18.541698
5487.000000	3.922145	3.559359	21.375316
5489.000000	3.850816	3.551593	18.511867
5491.000000	3.872562	3.620238	22.929106
5493.000000	4.396420	4.486715	19.974837
5495.000000	4.615632	4.975078	36.493743
5497.000000	3.458729	3.252961	26.744414
5499.000000	3.524473	3.626016	15.164908
5501.000000	4.086930	4.027228	16.115155
