

# Weak magnets in place
# Scan parameters: power 19.000000 dBm, bandwidth 1.500000 Hz
# Frequency [MHz]	avg noise	std noise	peak value
3850.000000	0.090683	0.098231	491.245602
3851.000000	1.224295	0.454769	436.270118
3852.000000	0.088703	0.100311	293.960278
3853.000000	0.094558	0.099392	637.063658
3854.000000	1.099068	0.417872	510.413320
3855.000000	0.096431	0.106051	523.089543
3856.000000	0.082895	0.084585	845.122390
3857.000000	0.096299	0.111941	604.396971
3858.000000	1.114771	0.450633	644.951447
3859.000000	0.350183	0.218084	874.424342
3860.000000	0.096330	0.096932	495.132682
3861.000000	0.508772	0.289891	775.840683
3862.000000	0.091891	0.103935	912.342196
3863.000000	0.089155	0.107839	400.145252
3864.000000	0.084760	0.082426	850.535836
3865.000000	0.088724	0.094061	768.305598
3866.000000	0.096000	0.130102	515.267967
3867.000000	0.085107	0.073899	914.752737
3868.000000	0.090927	0.090543	684.899700
3869.000000	0.096418	0.082391	607.443010
3870.000000	0.092192	0.092589	866.057965
3871.000000	0.082445	0.083110	495.902666
3872.000000	0.088869	0.090349	732.869201
3873.000000	0.088199	0.086788	862.184810
3874.000000	0.090333	0.095904	398.976846
3875.000000	0.094503	0.106799	844.128070
3876.000000	0.083481	0.083432	849.696169
3877.000000	0.102940	0.097521	468.269849
3878.000000	0.100082	0.110700	934.604567
3879.000000	1.035047	0.457517	790.674927
3880.000000	0.095630	0.089510	690.129477
3881.000000	0.102064	0.102608	1055.872553
3882.000000	0.094293	0.093055	700.535465
3883.000000	0.088523	0.086547	896.145646
3884.000000	0.090473	0.091920	1104.686586
3885.000000	0.090439	0.088107	610.127320
3886.000000	0.088705	0.097293	993.661102
3887.000000	0.096026	0.100578	1181.667800
3888.000000	0.092307	0.085332	562.316144
3889.000000	0.091660	0.096674	1225.324121
3890.000000	0.099221	0.102693	1096.190588
3891.000000	0.097416	0.100747	739.100282
3892.000000	0.087021	0.090730	1369.313065
3893.000000	0.108535	0.130303	941.169262
3894.000000	0.106900	0.109081	987.104189
3895.000000	0.099325	0.105013	1368.077125
3896.000000	0.107465	0.110390	787.026884
3897.000000	0.092940	0.098044	1250.841822
3898.000000	0.104249	0.115389	1457.944913
3899.000000	0.578010	0.320876	690.860800
3900.000000	0.106609	0.129466	1361.533315
3901.000000	0.124752	0.114824	1326.250802
3902.000000	0.110264	0.117176	767.280906
3903.000000	0.101190	0.131860	1291.044069
3904.000000	0.104242	0.096310	1042.168046
3905.000000	0.350272	0.242101	789.071460
3906.000000	0.108441	0.108904	1198.663462
3907.000000	0.107625	0.106388	842.497120
3908.000000	0.102675	0.123953	906.006926
3909.000000	0.102327	0.099191	1186.104994
3910.000000	0.107672	0.121164	608.729592
3911.000000	0.112337	0.102381	1031.763962
3912.000000	0.103409	0.115236	1092.650363
3913.000000	0.103394	0.109230	533.095747
3914.000000	0.106105	0.109817	1114.137344
3915.000000	0.668720	0.389692	923.815580
3916.000000	0.118698	0.116042	660.204530
3917.000000	0.103621	0.112154	1170.170155
3918.000000	0.106964	0.117508	851.681278
3919.000000	0.113948	0.115011	849.421750
3920.000000	0.095420	0.117715	1208.405890
3921.000000	0.109709	0.114249	642.323260
3922.000000	0.097752	0.120143	925.703514
3923.000000	0.776327	0.369468	1019.887890
3924.000000	0.105942	0.093246	449.447905
3925.000000	0.111230	0.124398	995.843598
3926.000000	0.099937	0.105063	966.022914
3927.000000	0.929846	0.491880	570.976768
3928.000000	0.117439	0.130102	1063.594535
3929.000000	0.121588	0.131832	843.968078
3930.000000	1.525834	0.556332	637.877731
3931.000000	0.145125	0.167528	969.458321
3932.000000	0.162203	0.157140	555.418092
3933.000000	0.139686	0.153081	595.247420
3934.000000	0.125932	0.120560	646.686826
3935.000000	0.105721	0.106066	276.266098
3936.000000	0.100856	0.105838	430.852737
3937.000000	0.101070	0.092875	392.095957
3938.000000	0.098790	0.097287	148.550093
3939.000000	0.097240	0.088408	324.111066
3940.000000	0.098449	0.113258	258.966434
3941.000000	0.108525	0.105306	189.186942
3942.000000	0.093997	0.088811	363.121455
3943.000000	0.089605	0.085408	293.155086
3944.000000	0.103818	0.101863	340.229479
3945.000000	0.105959	0.107513	530.400958
3946.000000	0.103126	0.108520	346.876140
3947.000000	0.099517	0.097052	540.677966
3948.000000	0.094800	0.095573	754.457858
3949.000000	0.092841	0.085588	370.680443
3950.000000	0.107219	0.101983	910.396859
3951.000000	0.113817	0.121683	1059.819725
3952.000000	0.093882	0.110702	658.279574
3953.000000	0.094360	0.105899	1407.698381
3954.000000	0.110464	0.112635	1192.248009
3955.000000	0.110791	0.147877	1079.400197
3956.000000	0.103207	0.098616	1592.632614
3957.000000	0.099087	0.117859	1088.812702
3958.000000	0.683107	0.324718	1257.131563
3959.000000	0.092565	0.090913	1562.441548
3960.000000	0.111342	0.143969	833.896873
3961.000000	0.102773	0.105875	1311.586199
3962.000000	0.107847	0.109821	1416.920415
3963.000000	0.098192	0.098258	662.840135
3964.000000	0.102882	0.104937	1481.382765
3965.000000	0.116807	0.138452	1319.470024
3966.000000	0.119283	0.149418	929.625132
3967.000000	0.101907	0.102183	1830.490261
3968.000000	0.119527	0.144137	1215.102218
3969.000000	0.753477	0.407657	1405.978372
3970.000000	0.097957	0.106625	1970.160735
3971.000000	0.115019	0.114619	1174.523661
3972.000000	0.624669	0.314290	1645.476051
3973.000000	0.098740	0.097497	1957.439589
3974.000000	0.107445	0.158982	913.068441
3975.000000	0.089519	0.108562	1838.858669
3976.000000	0.785254	0.453154	1781.640519
3977.000000	0.106521	0.138392	950.357243
3978.000000	0.091348	0.098799	1678.376523
3979.000000	0.104961	0.125381	1268.454152
3980.000000	0.125329	0.156599	1035.041824
3981.000000	0.100962	0.107071	1645.742061
3982.000000	0.109241	0.102503	1071.551384
3983.000000	0.650414	0.333656	1215.264933
3984.000000	0.106139	0.116404	1661.873099
3985.000000	0.109492	0.129709	937.240589
3986.000000	0.112137	0.111946	1647.880370
3987.000000	0.112029	0.113529	1841.554893
3988.000000	0.120952	0.134959	916.632706
3989.000000	0.100122	0.121311	2131.471030
3990.000000	0.099726	0.113084	1977.686078
3991.000000	0.105310	0.177622	1397.889026
3992.000000	0.109101	0.106371	2651.550187
3993.000000	0.123431	0.136958	2058.439831
3994.000000	0.129660	0.263953	2193.153527
3995.000000	0.097803	0.098554	3279.921919
3996.000000	0.173323	0.264714	1919.421127
3997.000000	0.119197	0.237793	2924.873416
3998.000000	0.100589	0.101735	3594.312277
3999.000000	0.124285	0.148161	1561.685406
4000.000000	0.135753	0.284228	3556.622445
4001.000000	0.114963	0.105426	3402.280613
4002.000000	0.149204	0.259615	2092.870186
4003.000000	0.113366	0.207217	3907.674959
4004.000000	0.127624	0.164416	3179.170953
4005.000000	0.139623	0.210321	2693.804240
4006.000000	0.110941	0.154132	3763.257198
4007.000000	0.123895	0.163094	2449.153713
4008.000000	0.115742	0.223805	2524.602333
4009.000000	0.109434	0.151320	3201.092372
4010.000000	0.111896	0.129599	1532.427950
4011.000000	0.099100	0.107836	2399.510730
4012.000000	0.133399	0.152175	2498.860021
4013.000000	0.130171	0.158964	1033.454591
4014.000000	0.100196	0.095418	2384.857452
4015.000000	0.114050	0.128018	1796.149059
4016.000000	0.107332	0.123737	1303.033495
4017.000000	0.105651	0.101514	2101.236737
4018.000000	0.123982	0.119404	1431.075767
4019.000000	0.116808	0.137351	1386.525848
4020.000000	0.110869	0.101522	1741.145866
4021.000000	0.624822	0.359983	984.267193
4022.000000	0.115670	0.222700	1270.987304
4023.000000	0.197534	0.181723	1489.810401
4024.000000	0.129453	0.136108	674.400699
4025.000000	0.118692	0.139117	1378.552625
4026.000000	0.104558	0.106342	1343.752235
4027.000000	0.115119	0.111448	747.358914
4028.000000	0.095059	0.110205	1495.748373
4029.000000	0.105613	0.099525	1305.898442
4030.000000	0.105054	0.115603	1100.780978
4031.000000	0.581239	0.313295	1748.537566
4032.000000	0.123371	0.119343	1135.722173
4033.000000	0.445283	0.278551	1269.339029
4034.000000	0.395845	0.236819	1528.738269
4035.000000	0.103508	0.100805	809.529620
4036.000000	0.546564	0.331996	1201.232085
4037.000000	0.113479	0.107051	1297.453678
4038.000000	0.105580	0.114517	533.023667
4039.000000	0.878713	0.414904	1137.692026
4040.000000	0.101862	0.116579	899.802974
4041.000000	0.114057	0.124769	580.206844
4042.000000	0.098174	0.101528	1009.708471
4043.000000	0.472341	0.336611	665.611485
4044.000000	0.115950	0.101992	630.739289
4045.000000	0.105782	0.103589	856.403237
4046.000000	0.119851	0.111591	462.131238
4047.000000	0.104387	0.097032	635.031580
4048.000000	0.103830	0.107704	708.201974
4049.000000	0.115876	0.123922	299.655000
4050.000000	0.121256	0.136876	633.311493
4051.000000	0.111066	0.110846	581.542301
4052.000000	0.117892	0.111974	323.971548
4053.000000	0.114784	0.119784	524.566727
4054.000000	2.537255	0.841890	434.893389
4055.000000	0.127009	0.122083	289.787963
4056.000000	0.122232	0.122223	363.222167
4057.000000	1.257991	0.525300	180.092576
4058.000000	0.131130	0.126271	197.749169
4059.000000	1.057080	0.464419	159.603952
4060.000000	0.111402	0.098470	70.872733
4061.000000	0.117861	0.116281	101.916061
4062.000000	0.119132	0.118362	93.582055
4063.000000	0.117766	0.132088	33.483860
4064.000000	0.859192	0.443158	98.860615
4065.000000	0.112141	0.108380	57.007679
4066.000000	0.125463	0.120569	37.107130
4067.000000	0.106084	0.110460	54.763072
4068.000000	0.116016	0.115556	37.618816
4069.000000	0.122071	0.125874	34.089976
4070.000000	0.637938	0.406628	44.711605
4071.000000	0.113150	0.093620	26.217666
4072.000000	0.649885	0.372692	34.085813
4073.000000	0.108029	0.122682	66.934174
4074.000000	0.104032	0.092467	30.050612
4075.000000	0.115518	0.107100	81.769169
4076.000000	0.127215	0.128098	89.953609
4077.000000	0.106137	0.102272	50.603822
4078.000000	0.125205	0.152655	100.275249
4079.000000	0.109495	0.105462	90.597154
4080.000000	0.136118	0.119810	94.472154
4081.000000	0.127295	0.123006	165.178045
4082.000000	0.145374	0.145033	133.897748
4083.000000	0.131928	0.128519	182.043768
4084.000000	0.133235	0.136656	241.604703
4085.000000	0.150253	0.133893	129.259701
4086.000000	0.435264	0.340443	229.199926
4087.000000	0.130350	0.128576	254.233266
4088.000000	0.150498	0.174693	134.484290
4089.000000	0.435725	0.305096	279.133836
4090.000000	0.155915	0.145616	241.221466
4091.000000	0.153094	0.138127	176.306665
4092.000000	0.137891	0.131337	334.890759
4093.000000	0.147793	0.145174	255.652256
4094.000000	0.204504	0.205745	267.487511
4095.000000	0.160190	0.164633	452.121130
4096.000000	0.198795	0.180765	282.026182
4097.000000	0.184557	0.201831	446.138119
4098.000000	0.161584	0.162500	617.044279
4099.000000	0.229626	0.205653	273.852479
4100.000000	0.421933	0.366768	628.578742
4101.000000	0.190862	0.188362	621.365679
4102.000000	0.235642	0.241637	374.924733
4103.000000	0.240204	0.215206	695.329936
4104.000000	0.221774	0.245556	523.050594
4105.000000	0.261762	0.282339	435.292772
4106.000000	0.256820	0.249984	631.320615
4107.000000	0.332588	0.290311	394.640808
4108.000000	0.301596	0.290145	487.693611
4109.000000	0.325531	0.311210	521.003395
4110.000000	0.508033	0.491799	308.483515
4111.000000	0.441257	0.408962	472.632099
4112.000000	0.503720	0.481507	486.622004
4113.000000	0.659462	0.712753	253.297638
4114.000000	0.479770	0.505308	514.127057
4115.000000	0.747603	0.727153	451.216022
4116.000000	0.633182	0.591180	292.120023
4117.000000	0.375671	0.389509	583.113290
4118.000000	0.551164	0.555344	426.625147
4119.000000	0.346381	0.340433	402.677125
4120.000000	0.326957	0.320941	555.590578
4121.000000	0.288211	0.288043	285.048450
4122.000000	1.243329	0.788253	386.802577
4123.000000	0.331367	0.325242	446.362021
4124.000000	0.218853	0.248891	195.775345
4125.000000	0.234504	0.228807	351.976667
4126.000000	0.228643	0.223428	391.445868
4127.000000	0.208886	0.213678	236.077725
4128.000000	0.178165	0.178942	432.608607
4129.000000	0.164331	0.161675	353.887689
4130.000000	0.161745	0.151260	273.445223
4131.000000	0.161549	0.156738	392.013814
4132.000000	1.577974	0.612986	248.284549
4133.000000	1.447877	0.589828	321.414504
4134.000000	0.136202	0.121417	364.742150
4135.000000	0.122440	0.103777	202.527978
4136.000000	0.134523	0.136028	386.699201
4137.000000	0.134599	0.123470	435.250989
4138.000000	0.120469	0.137737	201.249996
4139.000000	0.106825	0.099877	482.303689
4140.000000	0.116505	0.116981	426.120358
4141.000000	0.117384	0.122973	286.778203
4142.000000	0.108678	0.114729	547.763381
4143.000000	0.107197	0.099383	396.332120
4144.000000	0.117727	0.116599	367.275437
4145.000000	2.510598	0.682475	487.881802
4146.000000	0.103807	0.113436	255.576779
4147.000000	0.090211	0.092316	315.695549
4148.000000	0.097293	0.101827	337.719668
4149.000000	0.105222	0.094959	136.158507
4150.000000	0.103830	0.104632	270.029029
4151.000000	0.098366	0.095323	222.627313
4152.000000	0.096267	0.092565	132.612498
4153.000000	0.085358	0.081376	239.388059
4154.000000	0.090339	0.083311	201.738001
4155.000000	0.089046	0.086608	172.251646
4156.000000	0.091432	0.087329	235.714362
4157.000000	0.076489	0.082284	147.929813
4158.000000	0.082852	0.079403	178.152891
4159.000000	0.095724	0.103609	206.108591
4160.000000	0.073478	0.076776	101.365551
4161.000000	0.080341	0.079283	145.263059
4162.000000	2.790120	0.735814	151.414136
4163.000000	0.080845	0.080490	62.886705
4164.000000	0.081046	0.080261	124.161925
4165.000000	0.079651	0.076272	86.730130
4166.000000	0.080400	0.070452	46.749826
4167.000000	0.086727	0.080845	74.954923
4168.000000	0.075206	0.069036	44.813718
4169.000000	0.088594	0.081617	41.244790
4170.000000	3.641253	0.774144	84.969925
4171.000000	0.078916	0.083813	18.819089
4172.000000	0.077718	0.079651	27.692986
4173.000000	0.074082	0.071284	22.972777
4174.000000	0.074805	0.075239	8.066611
4175.000000	2.753404	0.659749	8.191262
4176.000000	0.737484	0.386622	5.676745
4177.000000	1.621627	0.525782	9.894002
4178.000000	0.074357	0.063979	10.131327
4179.000000	0.070416	0.065262	7.800852
4180.000000	0.088415	0.089414	4.586161
4181.000000	0.087936	0.086251	8.928910
4182.000000	0.071626	0.076825	3.540760
4183.000000	0.071082	0.070317	2.108828
4184.000000	0.081894	0.073333	0.648270
4185.000000	0.080181	0.079767	0.431840
4186.000000	0.079263	0.079548	3.333643
4187.000000	0.084166	0.078563	4.479018
4188.000000	0.080896	0.082304	3.981555
4189.000000	0.071425	0.070586	9.965934
4190.000000	0.076062	0.076121	9.027715
4191.000000	0.086183	0.088489	6.976999
4192.000000	0.074560	0.070753	21.040654
4193.000000	0.071689	0.068939	20.397241
4194.000000	0.079758	0.081752	24.180598
4195.000000	0.078988	0.081939	42.165656
4196.000000	0.641376	0.341652	24.661958
4197.000000	0.084807	0.087492	35.111240
4198.000000	0.085754	0.094777	33.196102
4199.000000	0.501449	0.378273	29.230305
4200.000000	0.110478	0.129046	37.678963
4201.000000	0.095210	0.088095	45.630388
4202.000000	0.093764	0.090969	32.335530
4203.000000	0.091002	0.093744	66.244110
4204.000000	0.101990	0.104050	62.048499
4205.000000	0.103858	0.095748	52.777231
4206.000000	0.110144	0.101946	76.743236
4207.000000	0.109157	0.099239	55.683277
4208.000000	0.109950	0.105262	71.760436
4209.000000	0.107059	0.116025	99.527874
4210.000000	0.115568	0.114610	62.551043
4211.000000	0.106469	0.096212	101.285044
4212.000000	0.108310	0.105565	123.640526
4213.000000	0.769948	0.435561	63.645967
4214.000000	0.775386	0.336872	129.288660
4215.000000	0.095364	0.087524	88.784457
4216.000000	0.109409	0.105116	60.002353
4217.000000	0.088349	0.088690	98.124197
4218.000000	1.116493	0.443101	67.155662
4219.000000	0.103803	0.104348	70.010087
4220.000000	0.102283	0.102212	98.832551
4221.000000	0.091260	0.093379	51.321540
4222.000000	0.099768	0.101025	69.591192
4223.000000	0.967020	0.404131	104.022576
4224.000000	0.084774	0.089525	39.065878
4225.000000	0.090703	0.089513	101.501949
4226.000000	0.093373	0.092727	106.083390
4227.000000	0.083122	0.073156	67.674274
4228.000000	0.077441	0.071540	141.884587
4229.000000	0.093804	0.094501	110.433910
4230.000000	0.075652	0.078501	88.325545
4231.000000	0.083634	0.085159	140.212599
4232.000000	1.150069	0.462305	86.525018
4233.000000	0.086478	0.098396	117.287738
4234.000000	0.072174	0.069834	141.830338
4235.000000	0.078291	0.078531	78.671392
4236.000000	1.838476	1.259632	114.497698
4237.000000	0.096573	0.103238	117.527471
4238.000000	0.073753	0.069065	48.058681
4239.000000	0.072967	0.069497	96.135856
4240.000000	0.070037	0.076272	75.979155
4241.000000	0.071352	0.082488	46.870497
4242.000000	0.079667	0.084343	79.778075
4243.000000	0.067587	0.076965	52.588081
4244.000000	0.065547	0.064542	51.680176
4245.000000	0.084839	0.077704	74.456833
4246.000000	0.857824	0.360892	38.814120
4247.000000	0.074321	0.065372	46.805491
4248.000000	0.068023	0.067292	45.009879
4249.000000	0.079606	0.080120	17.640343
4250.000000	0.073086	0.067376	37.453595
4251.000000	0.078330	0.065008	32.604237
4252.000000	0.079994	0.079531	24.670599
4253.000000	0.078246	0.078621	41.715459
4254.000000	0.088024	0.077239	27.793619
4255.000000	0.075370	0.073921	17.988836
4256.000000	0.075709	0.074663	26.796493
4257.000000	0.984565	0.370404	8.896420
4258.000000	0.084876	0.086149	14.046865
4259.000000	0.080123	0.081281	21.956345
4260.000000	0.072401	0.070949	5.395939
4261.000000	0.077912	0.069712	11.183898
4262.000000	0.078219	0.080600	7.095703
4263.000000	0.083321	0.083737	3.130682
4264.000000	0.083133	0.075384	6.018127
4265.000000	1.796508	0.487471	3.525430
4266.000000	0.077042	0.068306	0.708130
4267.000000	0.074332	0.069304	0.542024
4268.000000	0.092498	0.085466	0.292192
4269.000000	0.074797	0.076096	0.541445
4270.000000	0.080371	0.076389	0.301594
4271.000000	0.076961	0.082200	0.274131
4272.000000	0.081767	0.083746	0.283926
4273.000000	0.082269	0.082651	0.549780
4274.000000	1.743203	0.488699	6.014859
4275.000000	0.086013	0.092446	2.906861
4276.000000	0.076401	0.088341	5.160847
4277.000000	0.085648	0.076843	4.290095
4278.000000	0.088561	0.086562	14.112129
4279.000000	0.083049	0.075469	11.242550
4280.000000	0.091391	0.079901	7.497393
4281.000000	0.082037	0.087169	12.825933
4282.000000	0.075557	0.074835	10.199511
4283.000000	0.068510	0.074534	10.849612
4284.000000	0.065337	0.066420	12.810972
4285.000000	0.057465	0.057379	7.026773
4286.000000	0.071674	0.066617	7.811900
4287.000000	0.075613	0.066749	8.788782
4288.000000	0.064497	0.064670	3.293468
4289.000000	0.062872	0.063115	6.208020
4290.000000	0.053784	0.051063	6.608144
4291.000000	1.507950	0.518962	9.198996
4292.000000	3.096500	0.598856	5.524589
4293.000000	0.050995	0.055279	12.141224
4294.000000	1.795763	0.471427	10.058923
4295.000000	0.058714	0.062049	25.589840
4296.000000	3.210524	0.749478	22.451462
4297.000000	0.055649	0.052296	34.503210
4298.000000	0.053363	0.050663	40.988095
4299.000000	0.056212	0.064366	21.869767
4300.000000	0.056096	0.055822	52.821941
4301.000000	0.061010	0.059146	60.884020
4302.000000	0.057051	0.058133	41.016863
4303.000000	1.327512	0.421670	95.306195
4304.000000	0.051573	0.051137	85.471552
4305.000000	0.057229	0.060639	75.245138
4306.000000	0.067286	0.063107	139.175026
4307.000000	0.057790	0.058460	97.533736
4308.000000	0.063574	0.063750	134.100785
4309.000000	0.061432	0.066755	163.282508
4310.000000	0.067363	0.064192	93.601900
4311.000000	0.061029	0.064993	181.671866
4312.000000	0.552668	0.247835	212.252080
4313.000000	0.087999	0.083374	100.216091
4314.000000	0.067147	0.065605	224.848715
4315.000000	0.077596	0.077204	217.583124
4316.000000	0.097491	0.097701	149.669429
4317.000000	0.110136	0.114473	294.765869
4318.000000	0.097119	0.105457	181.830264
4319.000000	0.106691	0.118140	206.448027
4320.000000	0.135819	0.138759	272.508274
4321.000000	0.080561	0.084950	140.620142
4322.000000	0.089310	0.088640	231.316746
4323.000000	0.149726	0.162590	299.057880
4324.000000	0.117252	0.129613	127.406368
4325.000000	0.095538	0.100122	287.262224
4326.000000	0.127241	0.113288	296.705920
4327.000000	0.149874	0.153065	173.252219
4328.000000	0.161250	0.161536	337.837345
4329.000000	0.191268	0.190171	302.354232
4330.000000	0.223013	0.237746	249.858691
4331.000000	0.256565	0.251807	392.783345
4332.000000	0.240011	0.233529	279.172154
4333.000000	0.177292	0.168258	328.603088
4334.000000	0.144190	0.153974	410.225756
4335.000000	0.121255	0.125465	236.397551
4336.000000	0.156326	0.141952	357.621671
4337.000000	0.131558	0.134777	402.259145
4338.000000	0.133513	0.129850	189.570805
4339.000000	0.126155	0.126591	387.387839
4340.000000	0.135087	0.131100	345.824705
4341.000000	0.109944	0.109516	214.363771
4342.000000	0.089611	0.112587	381.008592
4343.000000	0.077260	0.081155	267.792917
4344.000000	0.073172	0.077228	263.310767
4345.000000	0.077258	0.069139	379.546283
4346.000000	0.100791	0.098989	190.436220
4347.000000	0.120845	0.113129	281.071622
4348.000000	0.099485	0.087105	296.221129
4349.000000	0.079715	0.076153	131.269173
4350.000000	0.073209	0.079919	291.192697
4351.000000	0.082096	0.077954	255.391084
4352.000000	0.108621	0.105941	131.043305
4353.000000	0.095932	0.085229	232.543506
4354.000000	0.100542	0.100665	177.318333
4355.000000	0.078445	0.079892	150.167522
4356.000000	0.080760	0.078136	191.619021
4357.000000	0.076566	0.073840	128.030479
4358.000000	0.085403	0.086416	142.460310
4359.000000	0.077676	0.082754	168.788863
4360.000000	0.075554	0.073929	80.437608
4361.000000	0.071226	0.066821	130.835639
4362.000000	0.077532	0.080259	144.072741
4363.000000	0.063068	0.061436	63.884918
4364.000000	0.076951	0.073989	152.745868
4365.000000	0.076750	0.071765	123.859686
4366.000000	0.083296	0.092675	81.262507
4367.000000	0.073331	0.063380	138.271714
4368.000000	0.070898	0.067202	92.010148
4369.000000	0.058742	0.064844	85.931003
4370.000000	0.066499	0.063956	109.371201
4371.000000	0.063767	0.073133	54.033456
4372.000000	0.069686	0.063254	67.444695
4373.000000	0.056834	0.053342	61.259180
4374.000000	2.647866	0.583705	44.817899
4375.000000	0.063499	0.062983	42.536156
4376.000000	1.366235	0.438375	22.989852
4377.000000	0.064831	0.058513	12.842393
4378.000000	0.062205	0.068830	19.231967
4379.000000	2.579395	0.618218	25.915086
4380.000000	0.064448	0.058458	7.681260
4381.000000	0.067428	0.065057	10.469415
4382.000000	0.079599	0.079470	6.102942
4383.000000	2.753506	0.625555	9.507669
4384.000000	2.505045	0.609265	4.930839
4385.000000	2.746134	0.621794	12.603616
4386.000000	0.061944	0.059700	6.931652
4387.000000	0.064401	0.057591	9.172683
4388.000000	0.065862	0.067524	6.286054
4389.000000	0.981752	0.371978	20.797216
4390.000000	1.587659	0.498109	29.602008
4391.000000	0.458357	0.258375	17.984135
4392.000000	0.309959	0.212739	22.289106
4393.000000	0.935887	0.398306	13.576613
4394.000000	0.123273	0.115228	18.971318
4395.000000	0.085821	0.086942	21.033577
4396.000000	0.065775	0.064577	14.183965
4397.000000	0.066605	0.068338	24.274409
4398.000000	0.393652	0.251326	39.566111
4399.000000	0.305529	0.207652	14.682037
4400.000000	0.066355	0.069500	37.315794
4401.000000	1.557905	0.537798	27.375685
4402.000000	1.145653	0.420022	19.128672
4403.000000	0.069871	0.068534	44.247237
4404.000000	2.558359	0.610161	17.714344
4405.000000	0.072481	0.075686	30.757069
4406.000000	0.375860	0.241843	40.766523
4407.000000	0.542437	0.272495	24.009753
4408.000000	0.973006	0.392588	43.852993
4409.000000	2.177314	0.591442	53.804076
4410.000000	0.071889	0.078889	25.714255
4411.000000	2.841298	0.656713	22.155766
4412.000000	0.416728	0.251322	48.575454
4413.000000	0.069536	0.069098	19.884320
4414.000000	1.122719	0.392305	65.439866
4415.000000	0.061080	0.062855	44.878281
4416.000000	0.457773	0.225843	35.197128
4417.000000	0.081730	0.081645	61.760304
4418.000000	3.084761	0.761544	61.156005
4419.000000	2.054123	0.565371	34.818906
4420.000000	0.065306	0.066787	73.761924
4421.000000	0.373649	0.211170	29.164705
4422.000000	0.077975	0.072823	47.551132
4423.000000	0.084840	0.086301	64.522774
4424.000000	1.582101	0.508558	34.136440
4425.000000	0.085184	0.085954	54.774220
4426.000000	0.072255	0.077075	48.876508
4427.000000	2.785273	0.635019	26.465237
4428.000000	0.698276	0.300758	46.043707
4429.000000	1.350466	0.468501	27.665902
4430.000000	1.255935	0.503846	50.610688
4431.000000	2.214792	0.581153	88.177810
4432.000000	1.492432	0.471617	39.549499
4433.000000	1.168343	0.432227	43.397624
4434.000000	1.092254	0.417743	81.395791
4435.000000	2.986343	0.659527	34.460679
4436.000000	2.754540	0.663620	39.049440
4437.000000	0.779116	0.362123	68.364036
4438.000000	0.931836	0.389738	28.447907
4439.000000	0.081614	0.084801	70.543630
4440.000000	1.871334	0.586975	72.035657
4441.000000	0.084137	0.085108	55.028355
4442.000000	0.914493	0.370032	106.647146
4443.000000	2.026909	0.575507	49.844812
4444.000000	0.083938	0.083372	61.928738
4445.000000	0.083898	0.082367	93.256942
4446.000000	0.099062	0.105467	59.076726
4447.000000	0.100285	0.101385	83.910118
4448.000000	0.094994	0.091165	95.287701
4449.000000	3.030658	0.801901	52.509220
4450.000000	0.106752	0.100277	103.154076
4451.000000	1.588168	0.533796	72.154849
4452.000000	1.234217	0.495418	69.019551
4453.000000	1.322200	0.545845	107.308063
4454.000000	3.061449	0.891985	84.051855
4455.000000	2.991673	0.878649	49.198517
4456.000000	1.854091	0.742639	78.696252
4457.000000	1.087297	0.520665	75.890583
4458.000000	2.500754	0.839174	71.153239
4459.000000	2.178945	0.850068	138.361679
4460.000000	0.716753	0.468524	54.876097
4461.000000	1.006040	0.529462	135.593883
4462.000000	0.161945	0.156579	114.370647
4463.000000	0.191947	0.191223	63.313878
4464.000000	1.282482	0.653062	176.172520
4465.000000	3.215177	1.135029	176.418596
4466.000000	3.068789	1.216635	138.142090
4467.000000	2.062883	0.980058	220.878423
4468.000000	2.938953	1.144535	198.279829
4469.000000	0.318644	0.282649	171.742660
4470.000000	2.343926	1.179639	252.697696
4471.000000	0.417946	0.352089	145.269565
4472.000000	0.559233	0.587817	196.781960
4473.000000	0.683031	0.563487	217.449973
4474.000000	0.730658	0.778752	102.070131
4475.000000	0.754109	0.758965	171.850968
4476.000000	1.397327	1.234280	160.366728
4477.000000	3.666326	2.635511	101.096463
4478.000000	1.378145	1.254939	167.767744
4479.000000	0.915582	0.895353	155.203758
4480.000000	3.555057	2.598707	76.868073
4481.000000	1.215067	1.287538	144.749813
4482.000000	1.120945	1.231646	147.222359
4483.000000	1.554743	1.338664	102.187867
4484.000000	0.866421	0.852704	170.877469
4485.000000	4.335289	2.670624	98.845824
4486.000000	0.879928	0.885371	105.170046
4487.000000	1.432976	1.301104	95.276340
4488.000000	0.695385	0.672943	56.579980
4489.000000	1.962173	1.792607	101.639063
4490.000000	0.944591	0.905681	100.015117
4491.000000	3.179076	2.177456	51.338908
4492.000000	3.473929	2.264580	151.777650
4493.000000	1.450350	1.186944	103.783637
4494.000000	2.416891	1.992717	114.251234
4495.000000	1.294618	1.088749	136.093379
4496.000000	3.230004	1.944573	93.704712
4497.000000	2.107472	1.245287	107.670327
4498.000000	0.769746	0.636747	115.886657
4499.000000	1.581067	1.024954	53.455701
4500.000000	0.837325	0.700675	88.191775
4501.000000	0.667565	0.550357	118.379466
4502.000000	1.497349	0.921577	76.601091
4503.000000	3.129283	1.296268	112.599503
4504.000000	0.244321	0.244907	129.263449
4505.000000	0.857790	0.531899	117.257011
4506.000000	1.100894	0.536612	181.087245
4507.000000	3.269321	1.030324	109.904779
4508.000000	0.153234	0.172154	181.875146
4509.000000	0.530587	0.404291	202.167077
4510.000000	0.203861	0.191360	119.803660
4511.000000	2.096902	0.816044	227.509599
4512.000000	3.273180	1.051882	254.329770
4513.000000	3.035997	0.944344	117.481559
4514.000000	0.150823	0.152108	251.791936
4515.000000	0.170322	0.186615	219.560259
4516.000000	0.875274	0.498604	150.247488
4517.000000	0.150264	0.147500	272.451926
4518.000000	3.095716	0.857041	238.205792
4519.000000	3.158956	0.881695	193.601743
4520.000000	0.153137	0.143571	259.807572
4521.000000	0.140944	0.140740	143.967713
4522.000000	3.024714	0.810646	262.663364
4523.000000	0.103017	0.108223	272.465256
4524.000000	0.102320	0.091516	130.528016
4525.000000	3.189063	0.844271	280.699842
4526.000000	0.429068	0.258489	268.255704
4527.000000	0.099670	0.097102	161.366749
4528.000000	0.092154	0.082813	295.821828
4529.000000	3.058955	0.783544	229.477281
4530.000000	0.098044	0.087992	164.490060
4531.000000	0.089635	0.095522	250.826342
4532.000000	3.175177	0.712399	163.788399
4533.000000	2.856968	0.743143	195.454232
4534.000000	0.091810	0.107271	184.590547
4535.000000	0.085082	0.095573	87.949250
4536.000000	0.083075	0.077957	113.082244
4537.000000	1.227956	0.429579	97.443421
4538.000000	3.388805	0.747213	58.934232
4539.000000	0.073939	0.077068	75.370435
4540.000000	2.902962	0.736213	43.756559
4541.000000	0.083051	0.085077	41.499140
4542.000000	0.080478	0.092179	64.617940
4543.000000	0.079524	0.074139	49.830469
4544.000000	0.083375	0.095975	58.738967
4545.000000	3.298696	0.690249	121.243790
4546.000000	0.084470	0.077800	54.550208
4547.000000	0.075035	0.077814	84.486923
4548.000000	0.086289	0.084577	94.804369
4549.000000	0.093280	0.092074	40.008207
4550.000000	0.079898	0.076640	75.630824
4551.000000	0.078092	0.089746	66.255979
4552.000000	2.910558	0.642453	29.595733
4553.000000	3.074502	0.661461	46.027670
4554.000000	3.231628	0.733698	47.072758
4555.000000	1.547039	0.468951	30.601141
4556.000000	1.533113	0.486368	16.859333
4557.000000	1.345829	0.429526	11.078610
4558.000000	0.080265	0.080472	8.278554
4559.000000	0.071369	0.073392	9.145176
4560.000000	0.064520	0.062104	3.821051
4561.000000	0.070574	0.070106	5.526974
4562.000000	0.063152	0.064637	6.773943
4563.000000	3.181177	0.664893	6.700474
4564.000000	0.077606	0.078211	6.768739
4565.000000	1.862932	0.473391	12.269895
4566.000000	2.988631	0.691257	12.952667
4567.000000	0.959568	0.358879	12.893778
4568.000000	0.075014	0.075345	6.010388
4569.000000	0.756661	0.327530	6.364002
4570.000000	2.871834	0.654891	10.044193
4571.000000	1.593678	0.486895	4.361301
4572.000000	1.056303	0.394614	2.653764
4573.000000	0.072073	0.064810	2.457770
4574.000000	0.076706	0.073676	0.377128
4575.000000	0.065793	0.070070	0.567009
4576.000000	0.069162	0.060297	0.444323
4577.000000	0.069756	0.069322	0.425080
4578.000000	0.068502	0.064359	0.907746
4579.000000	0.065657	0.062740	0.844668
4580.000000	0.066028	0.058524	0.945485
4581.000000	1.675312	0.500356	2.926718
4582.000000	0.069448	0.064520	3.797981
4583.000000	0.075666	0.077063	2.998380
4584.000000	1.008967	0.415543	12.067250
4585.000000	0.519013	0.275985	4.975058
4586.000000	1.257424	0.412279	5.333695
4587.000000	0.074163	0.071138	7.496292
4588.000000	0.066855	0.069138	4.623600
4589.000000	0.077633	0.075943	5.797770
4590.000000	0.073643	0.069503	4.537796
4591.000000	0.067165	0.069248	2.909117
4592.000000	0.076749	0.075565	5.341657
4593.000000	0.064033	0.063061	2.378354
4594.000000	0.063642	0.075880	6.846222
4595.000000	0.072838	0.072429	6.454374
4596.000000	0.069677	0.072569	3.970375
4597.000000	0.072657	0.068832	6.167690
4598.000000	0.062913	0.073618	5.489345
4599.000000	0.069743	0.069423	2.129242
4600.000000	0.061851	0.062721	5.682458
4601.000000	0.075052	0.068731	5.871718
4602.000000	0.061156	0.058656	3.645122
4603.000000	0.072331	0.071916	6.877260
4604.000000	0.066609	0.060540	8.787964
4605.000000	0.069070	0.063801	9.589617
4606.000000	0.060393	0.054594	19.348865
4607.000000	0.065374	0.068684	15.885887
4608.000000	0.067503	0.066799	26.893831
4609.000000	0.069207	0.066365	33.908985
4610.000000	0.065795	0.072104	17.907929
4611.000000	0.077482	0.079241	41.330697
4612.000000	0.076617	0.072295	38.724708
4613.000000	0.073572	0.071939	19.793828
4614.000000	0.073025	0.072929	45.649162
4615.000000	0.063890	0.059305	40.953140
4616.000000	0.064808	0.061815	25.763587
4617.000000	0.058964	0.051159	56.627298
4618.000000	0.061261	0.061974	42.603383
4619.000000	0.063506	0.065088	43.631521
4620.000000	0.067425	0.066804	77.247286
4621.000000	0.075595	0.084308	43.835896
4622.000000	0.071503	0.070020	72.106168
4623.000000	0.478645	0.243127	110.851901
4624.000000	0.068502	0.066589	46.239199
4625.000000	0.068108	0.074864	118.788560
4626.000000	0.064240	0.068748	138.376850
4627.000000	0.067433	0.072575	82.727712
4628.000000	0.066577	0.085291	185.034491
4629.000000	0.069673	0.064679	167.854319
4630.000000	0.075495	0.080889	162.987264
4631.000000	0.072127	0.067633	248.944909
4632.000000	0.079221	0.099356	182.853479
4633.000000	0.074900	0.080988	214.492047
4634.000000	0.069348	0.069328	269.008564
4635.000000	0.068997	0.068605	132.326821
4636.000000	0.062263	0.063500	194.294361
4637.000000	0.061046	0.058832	217.424727
4638.000000	0.070121	0.073644	98.328825
4639.000000	0.081803	0.078611	190.600304
4640.000000	0.070363	0.068910	152.025819
4641.000000	0.071880	0.071914	104.474644
4642.000000	0.069790	0.063460	156.424890
4643.000000	0.068474	0.082845	104.231521
4644.000000	0.069903	0.071244	96.549225
4645.000000	0.287638	0.169994	128.054647
4646.000000	0.062873	0.060207	73.530250
4647.000000	0.068321	0.074718	94.634649
4648.000000	0.069182	0.071954	90.714929
4649.000000	0.065701	0.061105	36.782354
4650.000000	0.065962	0.060040	70.951874
4651.000000	0.072254	0.072524	60.586411
4652.000000	1.318608	0.414946	43.485712
4653.000000	0.070350	0.068686	61.395719
4654.000000	0.071982	0.069159	53.821719
4655.000000	0.073910	0.073106	44.771774
4656.000000	0.078120	0.074146	69.612347
4657.000000	0.065630	0.069766	39.825652
4658.000000	0.073372	0.070660	44.411995
4659.000000	0.079825	0.072426	66.340206
4660.000000	0.078629	0.076258	33.481351
4661.000000	0.072405	0.075093	58.832489
4662.000000	0.067675	0.076351	72.857265
4663.000000	0.071733	0.070690	35.164905
4664.000000	0.719018	0.313407	81.676269
4665.000000	0.068352	0.065505	60.993759
4666.000000	0.077096	0.072637	40.500304
4667.000000	0.067411	0.069019	58.005873
4668.000000	0.080606	0.086043	36.204234
4669.000000	0.082807	0.075050	35.168602
4670.000000	0.078662	0.068171	43.861421
4671.000000	0.075281	0.077275	20.031873
4672.000000	0.081335	0.075896	23.004502
4673.000000	0.084365	0.088713	21.029616
4674.000000	0.080687	0.083283	4.882752
4675.000000	0.076056	0.069740	7.505511
4676.000000	0.092232	0.092644	1.766823
4677.000000	0.077801	0.074990	0.447684
4678.000000	0.391312	0.245774	0.921061
4679.000000	0.087141	0.084936	1.807643
4680.000000	0.095587	0.094066	2.524690
4681.000000	0.079079	0.070494	16.605971
4682.000000	0.088609	0.090284	15.624068
4683.000000	0.087824	0.079654	26.374788
4684.000000	0.088204	0.087541	47.293954
4685.000000	0.091105	0.088914	34.189047
4686.000000	0.082235	0.081997	75.597956
4687.000000	0.081446	0.079205	91.314599
4688.000000	0.083521	0.086962	46.427957
4689.000000	0.222489	0.172060	120.204094
4690.000000	0.080877	0.087638	104.489619
4691.000000	0.088428	0.091593	77.198125
4692.000000	0.093396	0.093191	155.821185
4693.000000	0.093774	0.096887	116.566310
4694.000000	0.102099	0.102129	116.110414
4695.000000	0.084638	0.095443	160.773518
4696.000000	0.102875	0.104623	88.522478
4697.000000	0.079119	0.075816	121.478571
4698.000000	0.090741	0.097664	140.476474
4699.000000	0.089004	0.096862	53.150850
4700.000000	0.099321	0.102332	123.660663
4701.000000	0.088203	0.083505	115.735772
4702.000000	0.109883	0.102367	76.304722
4703.000000	0.092094	0.088346	160.513082
4704.000000	0.091080	0.085543	140.437828
4705.000000	0.272711	0.206712	133.774973
4706.000000	0.085453	0.077228	196.941999
4707.000000	0.084783	0.081599	134.486225
4708.000000	0.090586	0.088042	155.466405
4709.000000	0.082665	0.079799	192.331669
4710.000000	0.090677	0.092178	109.432565
4711.000000	0.086690	0.079855	169.900254
4712.000000	0.079164	0.086305	176.770318
4713.000000	0.084184	0.081565	78.471764
4714.000000	0.090851	0.100101	183.857093
4715.000000	0.086370	0.104371	153.906168
4716.000000	0.474881	0.277505	107.027668
4717.000000	0.519146	0.285676	160.333219
4718.000000	0.086900	0.085739	109.688537
4719.000000	0.088691	0.096985	108.788264
4720.000000	0.079100	0.081580	146.562786
4721.000000	0.097281	0.091392	77.221565
4722.000000	0.082836	0.078634	100.493964
4723.000000	0.093201	0.083349	93.913193
4724.000000	0.080274	0.077733	34.514296
4725.000000	0.084489	0.072639	65.894430
4726.000000	0.082968	0.083788	52.390438
4727.000000	0.077109	0.073819	26.263918
4728.000000	0.084496	0.079366	47.362744
4729.000000	0.082975	0.085551	31.744319
4730.000000	0.068902	0.066558	25.464330
4731.000000	0.075107	0.085061	33.587314
4732.000000	0.087086	0.089697	16.896838
4733.000000	0.074357	0.073569	20.868332
4734.000000	0.070599	0.073036	25.228498
4735.000000	0.081912	0.071020	15.036486
4736.000000	0.076505	0.070614	24.965948
4737.000000	0.080291	0.083957	30.955017
4738.000000	0.085744	0.077547	21.105352
4739.000000	0.082480	0.080427	61.205063
4740.000000	0.081334	0.079570	82.079809
4741.000000	0.095169	0.104165	60.765353
4742.000000	0.078897	0.065489	149.047807
4743.000000	0.100770	0.095231	128.703278
4744.000000	1.231516	0.428671	175.901635
4745.000000	0.086227	0.082549	255.235461
4746.000000	0.077717	0.075972	151.955876
4747.000000	0.078197	0.088787	270.074810
4748.000000	0.083699	0.088150	349.345071
4749.000000	0.084335	0.075930	161.917183
4750.000000	0.087399	0.104144	371.432063
4751.000000	0.082803	0.079818	349.243192
4752.000000	0.096348	0.125931	225.213700
4753.000000	0.086569	0.090383	390.670704
4754.000000	0.096439	0.097859	310.067864
4755.000000	0.080355	0.095067	273.882435
4756.000000	0.095870	0.100243	433.851572
4757.000000	0.089345	0.096003	305.157092
4758.000000	0.078700	0.088189	382.447761
4759.000000	0.078347	0.094059	517.212143
4760.000000	0.086707	0.085451	288.319000
4761.000000	0.086317	0.080175	499.221878
4762.000000	0.093481	0.102100	557.518025
4763.000000	0.083005	0.089912	259.295387
4764.000000	0.071272	0.074103	644.357040
4765.000000	0.082728	0.097947	577.263861
4766.000000	0.084148	0.094728	429.451534
4767.000000	0.224940	0.192053	734.628271
4768.000000	0.617568	0.344985	542.125910
4769.000000	0.077453	0.080054	543.575214
4770.000000	0.088661	0.093083	740.341291
4771.000000	1.195295	0.457539	445.411666
4772.000000	0.752282	0.355480	600.392725
4773.000000	1.102748	0.413092	621.466411
4774.000000	0.092928	0.098765	283.044163
