

# Same as 52, but shifted 1MHz up
# Scan parameters: power 19.000000 dBm, bandwidth 1.500000 Hz
# Frequency [MHz]	avg noise	std noise	peak value
3851.000000	4.763364	3.928724	533.417347
3852.000000	1.948062	1.944075	278.734119
3853.000000	2.158702	2.122506	574.084929
3854.000000	2.709431	2.550850	470.705879
3855.000000	2.314478	2.459667	511.107646
3856.000000	1.864787	1.645750	809.244543
3857.000000	2.259018	2.353472	609.286556
3858.000000	4.298797	3.631779	705.301262
3859.000000	7.569828	7.810739	1120.257822
3860.000000	2.409891	2.224209	418.624259
3861.000000	2.570772	2.465554	850.649965
3862.000000	2.205122	2.154762	878.788173
3863.000000	2.061991	1.922786	378.271035
3864.000000	3.490440	3.005854	944.326689
3865.000000	2.275514	2.158903	756.005698
3866.000000	2.818217	2.579371	519.602907
3867.000000	2.824574	2.612393	951.729786
3868.000000	1.849514	1.804205	516.491706
3869.000000	2.716554	2.936691	593.729628
3870.000000	2.041989	1.913869	738.001258
3871.000000	2.367018	2.005998	496.399724
3872.000000	2.744225	2.788536	574.790888
3873.000000	2.285002	2.369283	640.982069
3874.000000	2.322380	2.229140	328.701144
3875.000000	2.563198	2.463591	663.783829
3876.000000	2.439219	2.089121	631.329393
3877.000000	2.260556	2.187008	368.924735
3878.000000	3.079034	3.163153	982.905261
3879.000000	2.628345	2.829529	900.629518
3880.000000	2.163603	1.917615	643.598231
3881.000000	2.547000	2.704831	983.551556
3882.000000	2.257759	2.209299	667.472906
3883.000000	2.302107	1.968679	857.597146
3884.000000	2.097698	2.166430	1215.970553
3885.000000	2.658790	2.352728	599.959800
3886.000000	2.188734	2.118028	1021.571501
3887.000000	1.878308	1.855050	1320.128034
3888.000000	2.517719	2.527674	616.815238
3889.000000	1.895330	1.944186	1355.469086
3890.000000	1.920896	1.898966	1269.940972
3891.000000	2.936624	2.623186	845.642599
3892.000000	2.036099	1.902495	1571.918240
3893.000000	1.989239	1.846890	1252.246124
3894.000000	1.986368	1.696547	1086.501200
3895.000000	1.748541	1.816468	1485.065700
3896.000000	2.277712	1.936609	1098.843753
3897.000000	1.821046	1.769132	1428.705444
3898.000000	2.146516	1.953807	1733.812843
3899.000000	1.765695	1.547947	792.054440
3900.000000	1.626861	1.609887	1417.943774
3901.000000	1.808727	1.900259	1417.583746
3902.000000	1.896789	1.842490	747.343889
3903.000000	2.132298	2.439609	1256.551742
3904.000000	2.112159	2.008628	1288.580911
3905.000000	1.677478	1.661743	963.827472
3906.000000	2.551226	2.348130	1560.371906
3907.000000	1.741404	1.797730	990.857607
3908.000000	1.646524	1.588971	1193.026262
3909.000000	1.756216	1.596440	1366.017916
3910.000000	1.948000	1.922125	724.531149
3911.000000	1.904012	1.780047	1226.381748
3912.000000	2.166744	2.116570	1171.522748
3913.000000	1.810783	1.761628	605.360315
3914.000000	3.016346	2.780648	1160.461514
3915.000000	2.396258	2.268073	1085.443938
3916.000000	2.523785	2.489514	747.696736
3917.000000	2.709545	2.577858	1218.132247
3918.000000	1.824912	1.482938	1074.552456
3919.000000	1.976873	2.088509	1079.507668
3920.000000	2.740345	2.525057	1361.539539
3921.000000	2.632691	2.333877	834.874503
3922.000000	2.272711	2.313023	1111.692282
3923.000000	2.397228	2.286142	1106.165551
3924.000000	2.970298	2.561651	498.238648
3925.000000	1.824181	1.728720	1079.140239
3926.000000	1.759317	1.597916	977.887073
3927.000000	1.839165	2.033859	610.374118
3928.000000	1.807355	1.806873	1144.486132
3929.000000	2.427450	2.471359	909.103176
3930.000000	1.968453	1.927590	719.720232
3931.000000	2.160814	2.504690	954.314532
3932.000000	1.703221	1.771201	573.261885
3933.000000	2.346895	1.991579	696.125684
3934.000000	1.739436	1.697815	720.188257
3935.000000	2.687898	2.528945	308.973572
3936.000000	1.683030	1.616997	468.483923
3937.000000	1.895948	1.927137	414.461307
3938.000000	2.511252	2.388823	169.310433
3939.000000	1.720130	1.724027	281.622177
3940.000000	2.151827	2.059595	253.168019
3941.000000	2.647223	2.537250	113.176495
3942.000000	2.681307	2.439337	214.391610
3943.000000	1.717723	1.657973	210.391343
3944.000000	1.828006	1.783346	204.213554
3945.000000	1.726898	1.835830	312.788101
3946.000000	1.985269	2.095802	207.240917
3947.000000	1.802207	1.755067	393.794625
3948.000000	1.798951	1.606447	475.897008
3949.000000	2.361926	2.380892	237.350301
3950.000000	2.148923	2.051434	470.846769
3951.000000	2.280920	2.441142	499.941767
3952.000000	1.720650	1.737999	346.240441
3953.000000	2.330058	2.213697	668.654803
3954.000000	1.663951	1.461650	680.939903
3955.000000	2.454600	2.300939	458.136468
3956.000000	1.794619	1.945230	817.070604
3957.000000	2.111144	1.869779	522.409835
3958.000000	2.223022	1.977427	538.193307
3959.000000	1.739785	1.662259	778.045082
3960.000000	1.553931	1.494456	340.915192
3961.000000	1.510071	1.479399	557.421513
3962.000000	1.843951	1.672896	658.340190
3963.000000	2.369403	2.321386	265.161287
3964.000000	2.081843	1.961205	623.123566
3965.000000	1.524839	1.549021	638.557617
3966.000000	2.267168	2.110179	425.436121
3967.000000	2.350103	2.295715	784.009887
3968.000000	2.071054	2.184310	619.068992
3969.000000	1.405382	1.438585	585.883065
3970.000000	1.799472	1.623882	877.980012
3971.000000	2.271711	2.263211	458.653722
3972.000000	2.268706	2.372968	800.840800
3973.000000	1.459598	1.629863	792.009557
3974.000000	1.994639	1.909183	321.021430
3975.000000	2.454357	2.543614	716.344449
3976.000000	2.025458	1.769171	535.260912
3977.000000	2.030806	1.951381	283.900733
3978.000000	1.260781	1.332695	460.665911
3979.000000	1.674361	1.625844	437.829946
3980.000000	1.463238	1.446489	287.889910
3981.000000	1.888112	1.600912	410.915553
3982.000000	1.786843	1.903579	332.925248
3983.000000	1.288915	1.291104	357.475298
3984.000000	1.255841	1.167311	556.123051
3985.000000	1.960948	2.281361	399.817666
3986.000000	1.466905	1.458522	668.105251
3987.000000	1.108419	1.055798	876.908511
3988.000000	1.719239	1.674825	563.529590
3989.000000	1.634095	1.358831	1172.646517
3990.000000	1.756358	1.585147	1269.780458
3991.000000	2.007020	1.800985	745.892780
3992.000000	1.656428	1.630487	1517.911313
3993.000000	1.178396	1.206161	1245.153481
3994.000000	1.664798	1.749189	1429.997179
3995.000000	2.014658	1.810607	2134.277737
3996.000000	1.148555	1.234077	1398.283319
3997.000000	1.099747	1.111685	2015.933213
3998.000000	1.125350	1.133745	2435.812280
3999.000000	1.266042	1.181216	1217.548860
4000.000000	1.167027	1.126587	2336.572008
4001.000000	1.109419	1.089514	2432.763800
4002.000000	1.893009	1.714738	1406.855346
4003.000000	1.195214	1.034510	2785.902123
4004.000000	1.013683	0.937415	2265.866479
4005.000000	1.047010	1.064354	1737.755138
4006.000000	0.900955	0.828167	2915.041742
4007.000000	1.037723	1.214092	1844.294759
4008.000000	0.968973	1.013197	1969.081123
4009.000000	0.941808	0.904385	2337.372578
4010.000000	0.970278	0.898766	1225.859513
4011.000000	0.942519	1.062336	1850.338371
4012.000000	1.005997	0.995298	1768.476757
4013.000000	1.081948	1.104218	764.366467
4014.000000	1.084278	1.034728	1621.986623
4015.000000	1.003885	1.059438	1415.116015
4016.000000	1.007445	0.998915	903.291214
4017.000000	1.376688	1.162000	1565.720118
4018.000000	1.016324	0.960515	1157.701048
4019.000000	1.091244	1.088614	1027.323173
4020.000000	1.349715	1.242084	1376.400606
4021.000000	0.966898	1.035343	847.159670
4022.000000	1.461894	1.362218	1014.340279
4023.000000	0.946947	1.047234	1255.289425
4024.000000	0.933607	1.010144	590.037766
4025.000000	0.998179	0.931932	1289.610739
4026.000000	0.961242	0.860366	1249.404902
4027.000000	1.022580	1.089574	666.340208
4028.000000	0.915861	0.895880	1419.560395
4029.000000	0.892228	0.918686	1253.987646
4030.000000	1.070675	0.876260	1096.611755
4031.000000	0.956779	0.950475	1629.491635
4032.000000	0.920379	1.001776	1122.354715
4033.000000	0.894695	0.958797	1390.153704
4034.000000	1.002335	1.123780	1560.296329
4035.000000	0.849986	0.795817	838.064944
4036.000000	0.986461	0.977375	1264.539712
4037.000000	1.059311	1.082086	1197.643160
4038.000000	0.977591	0.860045	507.507826
4039.000000	1.513563	1.255091	1037.692848
4040.000000	1.118740	1.113690	740.319952
4041.000000	1.749093	1.620483	652.841815
4042.000000	1.218177	1.178807	979.886744
4043.000000	0.818104	0.766218	707.611541
4044.000000	1.931223	1.742179	639.755467
4045.000000	0.795538	0.728553	935.834860
4046.000000	0.799189	0.829265	545.988684
4047.000000	0.854266	0.799946	767.636397
4048.000000	0.762375	0.745906	836.317859
4049.000000	0.891101	0.898378	354.444045
4050.000000	0.871786	0.935835	753.321842
4051.000000	1.744667	1.511916	710.851341
4052.000000	0.757385	0.737442	376.757686
4053.000000	0.733930	0.746803	700.580476
4054.000000	0.778877	0.730823	491.997373
4055.000000	0.774649	0.825074	359.420200
4056.000000	4.123236	2.896594	650.758935
4057.000000	0.800347	0.719219	281.784817
4058.000000	0.703571	0.639667	358.617776
4059.000000	1.777930	1.302117	375.329770
4060.000000	0.725121	0.682246	160.769007
4061.000000	0.680443	0.790621	270.310062
4062.000000	0.617451	0.628346	284.448890
4063.000000	0.742059	0.830028	135.765610
4064.000000	1.619552	1.324879	294.163696
4065.000000	0.647615	0.729823	225.696938
4066.000000	1.411907	1.338763	150.879339
4067.000000	0.801401	0.763119	247.643777
4068.000000	1.236154	1.010828	149.570843
4069.000000	0.708197	0.737486	140.414654
4070.000000	0.653769	0.667074	206.829224
4071.000000	1.322717	1.043990	88.678522
4072.000000	1.250447	1.235135	133.166131
4073.000000	0.663757	0.664284	245.410224
4074.000000	0.667788	0.647606	99.131235
4075.000000	1.641433	1.362130	253.487947
4076.000000	1.180726	1.129015	286.642578
4077.000000	0.562103	0.563882	160.680241
4078.000000	0.639540	0.586395	303.830428
4079.000000	1.148757	0.925866	215.565031
4080.000000	0.560282	0.537974	280.616556
4081.000000	0.699422	0.661002	417.495503
4082.000000	0.650575	0.695757	287.383349
4083.000000	0.649324	0.668722	369.988573
4084.000000	0.581353	0.599121	494.063881
4085.000000	0.704033	0.695390	271.876659
4086.000000	0.626404	0.651480	412.709999
4087.000000	3.883662	3.626941	445.909610
4088.000000	0.602764	0.601942	222.720516
4089.000000	0.943231	1.004915	452.126909
4090.000000	0.633140	0.619193	481.751898
4091.000000	0.568465	0.518995	329.802927
4092.000000	0.575663	0.553880	663.595212
4093.000000	0.655785	0.635776	528.441311
4094.000000	0.665005	0.666710	540.644610
4095.000000	0.608408	0.560460	914.701408
4096.000000	0.560461	0.551744	567.176942
4097.000000	0.558961	0.550144	818.852878
4098.000000	0.502529	0.473531	1014.977091
4099.000000	0.621955	0.593968	505.762777
4100.000000	0.658135	0.587095	1147.443968
4101.000000	0.623926	0.590946	1077.125183
4102.000000	0.634630	0.679455	630.549239
4103.000000	0.577194	0.565904	1164.789995
4104.000000	0.589517	0.609401	845.916569
4105.000000	0.656411	0.608314	663.975912
4106.000000	0.546680	0.548938	1053.790279
4107.000000	0.556195	0.510918	734.829529
4108.000000	0.485365	0.449768	787.964470
4109.000000	0.567582	0.555591	957.001877
4110.000000	0.652461	0.616293	484.212710
4111.000000	0.555434	0.576683	728.350443
4112.000000	0.489148	0.468210	668.855502
4113.000000	0.504704	0.498020	339.511302
4114.000000	0.608001	0.569726	642.091932
4115.000000	0.617005	0.593976	659.457533
4116.000000	0.570856	0.638517	391.921004
4117.000000	0.474267	0.447295	686.144365
4118.000000	0.581551	0.597284	448.963290
4119.000000	0.553321	0.563079	477.380058
4120.000000	0.554398	0.596885	666.042397
4121.000000	0.590171	0.578767	360.747349
4122.000000	2.081006	1.320380	532.155178
4123.000000	0.561991	0.576337	610.349181
4124.000000	0.513449	0.487742	275.321129
4125.000000	0.506481	0.560021	485.360447
4126.000000	0.514886	0.479955	484.873693
4127.000000	0.563777	0.542158	339.720224
4128.000000	0.634839	0.569981	515.710806
4129.000000	0.623986	0.635323	435.153279
4130.000000	0.607751	0.553895	411.350020
4131.000000	0.548716	0.547432	573.781423
4132.000000	0.500089	0.499407	392.193649
4133.000000	0.517938	0.511227	430.508222
4134.000000	0.528777	0.494363	566.401724
4135.000000	0.545512	0.541539	300.687090
4136.000000	2.453963	1.398875	498.759367
4137.000000	0.568415	0.584561	543.615508
4138.000000	0.537007	0.543318	220.797236
4139.000000	0.410276	0.400326	449.115203
4140.000000	0.529238	0.499101	420.537892
4141.000000	0.542194	0.520346	267.428068
4142.000000	0.526476	0.510901	448.145223
4143.000000	0.487237	0.480213	291.586999
4144.000000	0.506615	0.482765	285.532495
4145.000000	0.484083	0.460968	422.189095
4146.000000	0.565413	0.581297	203.567302
4147.000000	0.493912	0.455714	283.208163
4148.000000	0.508197	0.496714	297.824603
4149.000000	0.507058	0.513338	106.291028
4150.000000	0.566629	0.522182	206.878292
4151.000000	0.543809	0.540639	188.926977
4152.000000	0.556452	0.572227	108.354817
4153.000000	0.477214	0.504961	192.838020
4154.000000	2.694020	1.552387	208.490636
4155.000000	3.149428	1.788673	122.429452
4156.000000	3.271202	1.713054	131.435820
4157.000000	0.463323	0.517349	146.905351
4158.000000	0.552580	0.600333	143.239257
4159.000000	3.112674	1.765092	184.891484
4160.000000	0.447620	0.470984	95.925354
4161.000000	0.475292	0.474401	115.575963
4162.000000	3.533977	1.918318	160.602936
4163.000000	0.507510	0.531776	52.310036
4164.000000	0.443769	0.411634	95.028417
4165.000000	3.284624	1.667039	111.502070
4166.000000	0.447263	0.461909	59.054949
4167.000000	0.496433	0.541018	88.846453
4168.000000	0.475259	0.507366	51.797233
4169.000000	0.454035	0.427812	60.749605
4170.000000	0.501810	0.500611	75.902549
4171.000000	0.476437	0.468956	37.530580
4172.000000	0.482061	0.464536	44.792406
4173.000000	0.573602	0.610772	45.245054
4174.000000	2.389418	1.377615	24.093949
4175.000000	2.304585	1.504328	49.492971
4176.000000	2.160137	1.334357	41.627949
4177.000000	1.388165	1.131236	13.375288
4178.000000	0.504740	0.501199	20.408043
4179.000000	0.733070	0.678763	24.693190
4180.000000	0.450605	0.497224	13.878692
4181.000000	0.529670	0.529447	37.206586
4182.000000	0.594013	0.599842	23.729961
4183.000000	0.561887	0.543324	22.882963
4184.000000	1.118271	0.894412	45.154948
4185.000000	0.494176	0.482380	15.949792
4186.000000	0.494538	0.521915	34.301716
4187.000000	0.742736	0.782291	33.962064
4188.000000	0.771478	0.715663	15.644291
4189.000000	0.622262	0.599492	29.075337
4190.000000	1.383578	0.983117	44.073928
4191.000000	0.432571	0.406799	18.579351
4192.000000	0.511756	0.499825	34.479788
4193.000000	1.402888	1.061732	21.384242
4194.000000	1.402767	1.066423	40.781430
4195.000000	0.428790	0.434164	30.976290
4196.000000	0.561736	0.518162	29.631451
4197.000000	0.604874	0.546310	35.676501
4198.000000	1.278440	1.145531	39.327842
4199.000000	0.699119	0.711108	21.896332
4200.000000	0.704631	0.676525	26.672108
4201.000000	0.581095	0.581448	32.219710
4202.000000	0.728540	0.698665	20.064639
4203.000000	0.723619	0.739890	42.472400
4204.000000	0.605855	0.592987	29.109939
4205.000000	0.599602	0.575514	26.187939
4206.000000	0.669838	0.621932	30.680074
4207.000000	0.642838	0.644599	25.901685
4208.000000	0.544767	0.546811	22.877065
4209.000000	0.492590	0.526794	43.724087
4210.000000	0.463131	0.439298	16.984951
4211.000000	0.446016	0.425071	29.444345
4212.000000	0.459262	0.487431	39.329935
4213.000000	0.477891	0.530166	21.755777
4214.000000	0.442537	0.423893	36.871774
4215.000000	1.093929	0.837281	31.650512
4216.000000	0.393106	0.391622	15.607412
4217.000000	1.229571	0.896141	24.731259
4218.000000	0.567910	0.515857	19.305682
4219.000000	0.382945	0.388426	18.338321
4220.000000	0.463642	0.431239	22.651020
4221.000000	0.485212	0.523612	20.548437
4222.000000	0.506267	0.496858	29.285113
4223.000000	1.285752	0.964349	49.834674
4224.000000	0.484184	0.510700	16.131237
4225.000000	0.520857	0.510976	26.696929
4226.000000	0.488539	0.433051	36.869754
4227.000000	0.419844	0.458508	12.599028
4228.000000	0.813748	0.762543	37.293935
4229.000000	0.480454	0.475001	35.008705
4230.000000	0.622818	0.641582	33.596201
4231.000000	0.532919	0.525210	27.264986
4232.000000	1.371108	1.137285	35.596520
4233.000000	0.509754	0.529847	36.845278
4234.000000	0.473469	0.504028	40.677835
4235.000000	1.241932	1.062160	42.903343
4236.000000	0.531842	0.564955	48.885746
4237.000000	0.528149	0.564512	41.831210
4238.000000	0.554784	0.568490	28.808280
4239.000000	0.404466	0.419082	39.941551
4240.000000	0.570843	0.581211	39.321377
4241.000000	0.518374	0.513233	30.957664
4242.000000	0.472644	0.453104	42.134468
4243.000000	0.546501	0.556444	52.555234
4244.000000	0.501045	0.513032	27.748522
4245.000000	0.570906	0.540948	48.993301
4246.000000	0.568879	0.596016	19.295829
4247.000000	0.584095	0.616839	28.749709
4248.000000	0.666250	0.671790	30.896170
4249.000000	0.626928	0.653061	9.991395
4250.000000	0.713792	0.660918	26.310380
4251.000000	0.636485	0.641136	26.025561
4252.000000	1.515372	1.255324	16.776470
4253.000000	0.780206	0.826193	27.809017
4254.000000	0.726357	0.769151	38.199150
4255.000000	1.024711	0.910383	31.810195
4256.000000	1.766334	1.414372	27.839065
4257.000000	0.972249	0.930916	23.286635
4258.000000	0.931187	0.967726	17.572021
4259.000000	0.682482	0.633402	40.930185
4260.000000	0.746101	0.734147	22.755746
4261.000000	0.693977	0.673033	26.502768
4262.000000	0.706581	0.728978	25.667462
4263.000000	0.509016	0.514061	20.183121
4264.000000	0.603728	0.615502	29.929113
4265.000000	0.589027	0.599116	27.940042
4266.000000	0.486005	0.537431	19.614606
4267.000000	0.510358	0.545133	31.151094
4268.000000	0.508291	0.487332	19.556496
4269.000000	0.546255	0.538351	20.911472
4270.000000	0.533850	0.563374	12.911438
4271.000000	0.469007	0.418358	12.643964
4272.000000	0.451281	0.478799	18.296969
4273.000000	0.412097	0.458922	24.603523
4274.000000	0.443276	0.441065	9.174522
4275.000000	0.488979	0.499082	26.655145
4276.000000	0.535578	0.493205	31.252525
4277.000000	0.468763	0.492978	20.563782
4278.000000	0.417979	0.427622	34.719452
4279.000000	0.444716	0.460927	29.241830
4280.000000	0.419768	0.394347	24.768443
4281.000000	0.387372	0.403788	28.519271
4282.000000	0.391916	0.438296	21.278387
4283.000000	0.386636	0.363773	21.021925
4284.000000	0.366789	0.320600	37.249372
4285.000000	0.348058	0.344561	10.674875
4286.000000	0.679542	0.602078	21.841649
4287.000000	0.303865	0.290578	32.999478
4288.000000	0.284826	0.258801	7.745732
4289.000000	0.282667	0.303599	17.534715
4290.000000	0.279872	0.275202	18.272374
4291.000000	0.245697	0.252259	10.866226
4292.000000	0.227084	0.244736	29.587047
4293.000000	0.225518	0.249403	26.112453
4294.000000	0.233156	0.203869	29.342893
4295.000000	0.239756	0.267506	48.386977
4296.000000	0.276400	0.285764	29.621582
4297.000000	0.248937	0.252153	42.339210
4298.000000	0.261332	0.236415	47.013370
4299.000000	0.220035	0.213981	21.263014
4300.000000	0.258707	0.254118	49.342207
4301.000000	0.228431	0.219589	63.694244
4302.000000	0.259763	0.220122	39.772155
4303.000000	0.244923	0.238209	71.240318
4304.000000	0.246642	0.224836	46.364500
4305.000000	1.075681	0.698740	47.039903
4306.000000	0.494438	0.480392	64.684728
4307.000000	0.220892	0.223820	48.552056
4308.000000	0.292694	0.288117	71.920178
4309.000000	0.244429	0.250053	86.018160
4310.000000	0.241375	0.248586	59.969215
4311.000000	0.372968	0.357071	86.928541
4312.000000	0.243031	0.235117	103.776510
4313.000000	0.234235	0.204728	49.218528
4314.000000	0.280986	0.266768	119.164109
4315.000000	0.277877	0.280503	108.132120
4316.000000	0.267813	0.281854	85.994579
4317.000000	0.284923	0.281614	138.259870
4318.000000	0.248124	0.220808	100.598395
4319.000000	0.267674	0.288320	113.177833
4320.000000	0.274581	0.256485	143.729030
4321.000000	0.330484	0.353390	90.609515
4322.000000	0.448665	0.451627	149.193514
4323.000000	0.373183	0.378272	180.240771
4324.000000	0.362254	0.387961	92.439298
4325.000000	0.326697	0.314926	166.835572
4326.000000	0.358712	0.337691	207.848081
4327.000000	0.434661	0.379493	115.339927
4328.000000	0.426983	0.457945	248.332116
4329.000000	0.370325	0.345201	184.319207
4330.000000	0.410028	0.355193	174.442443
4331.000000	0.384685	0.351509	289.907493
4332.000000	0.400014	0.378675	185.463353
4333.000000	0.398600	0.375614	224.603388
4334.000000	0.368391	0.386191	328.691393
4335.000000	0.421208	0.373438	166.075594
4336.000000	0.866896	0.734535	259.848780
4337.000000	0.339991	0.358310	327.883928
4338.000000	0.385839	0.390435	132.773901
4339.000000	0.683964	0.626043	314.158458
4340.000000	0.799564	0.659032	215.306452
4341.000000	0.373018	0.374120	201.465944
4342.000000	0.356189	0.341609	337.224636
4343.000000	0.395710	0.368517	227.484117
4344.000000	0.407931	0.416667	210.382319
4345.000000	0.396604	0.375661	328.053980
4346.000000	0.382864	0.351893	181.953421
4347.000000	0.347852	0.333429	262.469457
4348.000000	0.394466	0.432300	269.205363
4349.000000	0.412719	0.414465	139.527980
4350.000000	0.396451	0.388892	235.634173
4351.000000	0.392864	0.410963	216.217329
4352.000000	0.358708	0.375759	127.005034
4353.000000	0.413641	0.391920	231.123127
4354.000000	0.424973	0.435631	172.187658
4355.000000	0.479366	0.470204	165.173266
4356.000000	0.423529	0.426615	209.241244
4357.000000	0.419177	0.419709	120.992358
4358.000000	0.458558	0.458064	155.291326
4359.000000	0.463807	0.413521	160.688996
4360.000000	0.484322	0.468148	77.174703
4361.000000	1.408881	1.054261	135.421781
4362.000000	0.492682	0.455975	135.372904
4363.000000	0.471176	0.502793	67.289798
4364.000000	1.117432	0.766328	132.516338
4365.000000	0.393513	0.360689	121.579951
4366.000000	0.410332	0.441903	70.300993
4367.000000	0.390060	0.344103	122.207778
4368.000000	0.384018	0.339484	81.737756
4369.000000	0.343803	0.306985	80.740944
4370.000000	0.347814	0.344021	114.619155
4371.000000	0.409168	0.425670	55.694751
4372.000000	0.325233	0.372334	93.362678
4373.000000	0.346844	0.337204	118.027868
4374.000000	0.321185	0.342243	47.733659
4375.000000	0.333070	0.329712	83.239619
4376.000000	0.333710	0.330371	77.810322
4377.000000	0.360389	0.382783	40.397184
4378.000000	0.379415	0.395405	51.814682
4379.000000	0.345551	0.354328	50.771620
4380.000000	0.356037	0.348111	45.640812
4381.000000	0.289790	0.283070	48.445605
4382.000000	0.332894	0.356180	27.759678
4383.000000	0.355519	0.330286	31.685308
4384.000000	0.322493	0.300739	30.142633
4385.000000	0.376251	0.439798	22.806502
4386.000000	0.285304	0.264126	30.948344
4387.000000	0.300191	0.292494	37.564137
4388.000000	0.283969	0.330190	20.798791
4389.000000	0.382194	0.373244	28.811733
4390.000000	0.244350	0.221666	44.200205
4391.000000	0.266882	0.263355	25.736529
4392.000000	0.212449	0.213063	53.596146
4393.000000	0.249277	0.243662	47.586562
4394.000000	0.268216	0.298021	36.141125
4395.000000	0.238977	0.248199	59.080165
4396.000000	0.235178	0.221125	46.411755
4397.000000	0.174299	0.160788	71.136127
4398.000000	0.201218	0.205739	81.764037
4399.000000	0.189922	0.184525	48.055308
4400.000000	0.197539	0.185706	85.268339
4401.000000	0.184215	0.195491	83.876235
4402.000000	0.161842	0.151864	51.365666
4403.000000	0.165850	0.159852	119.436695
4404.000000	0.150692	0.164760	95.124910
4405.000000	0.148920	0.140544	75.697351
4406.000000	0.163871	0.154357	123.857060
4407.000000	0.161585	0.154306	83.677551
4408.000000	0.139437	0.142962	88.080768
4409.000000	0.131140	0.134556	106.587970
4410.000000	0.144516	0.131872	63.910155
4411.000000	0.143488	0.139974	91.002839
4412.000000	0.138615	0.149144	115.921877
4413.000000	0.122449	0.107604	47.445096
4414.000000	0.138784	0.130676	117.252157
4415.000000	0.122613	0.123205	102.483521
4416.000000	0.118764	0.130883	68.702538
4417.000000	0.098340	0.087953	132.699091
4418.000000	0.113351	0.103237	77.081187
4419.000000	0.101987	0.100882	71.939006
4420.000000	0.124551	0.124616	94.094866
4421.000000	0.103079	0.099748	48.400969
4422.000000	0.109932	0.102885	66.914521
4423.000000	0.125102	0.117969	78.644454
4424.000000	0.132622	0.131122	39.014674
4425.000000	0.112510	0.118145	67.416990
4426.000000	0.105263	0.106922	64.117786
4427.000000	0.105779	0.102468	33.123073
4428.000000	0.125218	0.117392	66.472820
4429.000000	0.114101	0.114917	51.172594
4430.000000	0.107839	0.106413	42.091125
4431.000000	0.114792	0.121239	78.502909
4432.000000	0.118824	0.122916	43.116598
4433.000000	0.110449	0.110942	57.382325
4434.000000	0.120114	0.109755	73.334130
4435.000000	0.121984	0.116349	35.437779
4436.000000	0.120452	0.137818	54.880184
4437.000000	0.118818	0.112005	64.113528
4438.000000	0.119681	0.110124	37.719691
4439.000000	0.110630	0.100365	76.029102
4440.000000	0.107621	0.107400	70.958441
4441.000000	0.091406	0.082872	45.377442
4442.000000	0.123551	0.122227	82.626505
4443.000000	0.110091	0.099300	65.015069
4444.000000	0.102199	0.097964	70.749018
4445.000000	0.108577	0.127578	108.040554
4446.000000	0.095811	0.104790	64.437986
4447.000000	0.119710	0.113320	101.003163
4448.000000	0.100682	0.130592	116.613960
4449.000000	0.096370	0.095612	43.092710
4450.000000	0.096606	0.100263	87.817548
4451.000000	0.098386	0.095571	95.603057
4452.000000	0.122867	0.129781	53.019914
4453.000000	0.100205	0.102044	97.892693
4454.000000	0.092910	0.094645	71.905815
4455.000000	0.095720	0.106611	55.100012
4456.000000	0.104991	0.104369	86.578282
4457.000000	0.100147	0.101906	53.557616
4458.000000	0.087971	0.092849	62.935108
4459.000000	0.095889	0.105371	78.893542
4460.000000	0.094123	0.087434	42.444561
4461.000000	0.094408	0.089902	70.834891
4462.000000	0.089342	0.082386	81.905812
4463.000000	0.108279	0.111541	43.479966
4464.000000	0.480347	0.280176	105.818555
4465.000000	0.101774	0.110238	86.598207
4466.000000	0.104405	0.098189	68.009724
4467.000000	0.106362	0.098239	120.542096
4468.000000	0.101744	0.095192	95.523722
4469.000000	0.096086	0.096504	90.755246
4470.000000	0.088406	0.086632	133.990907
4471.000000	2.920050	0.833211	83.440842
4472.000000	0.093195	0.089574	94.570260
4473.000000	0.106216	0.101844	99.611221
4474.000000	0.438689	0.274817	44.058360
4475.000000	0.090687	0.094966	80.339607
4476.000000	0.093114	0.088923	79.048587
4477.000000	0.092875	0.084792	43.630608
4478.000000	0.102287	0.096649	71.994126
4479.000000	0.099513	0.098456	50.998220
4480.000000	0.098883	0.089789	40.935476
4481.000000	0.109995	0.114561	56.803416
4482.000000	0.102227	0.102115	37.476826
4483.000000	0.100367	0.102783	48.270924
4484.000000	0.102369	0.107883	66.611221
4485.000000	2.894686	0.838773	53.511273
4486.000000	0.106571	0.100695	51.962697
4487.000000	0.097889	0.103913	49.596311
4488.000000	0.107620	0.106669	23.718571
4489.000000	0.095753	0.109859	60.066018
4490.000000	0.121867	0.115438	52.811813
4491.000000	0.118669	0.117060	29.517355
4492.000000	0.117664	0.111611	56.490454
4493.000000	0.133648	0.127960	34.198311
4494.000000	0.156434	0.171270	36.292165
4495.000000	0.132645	0.123931	45.504510
4496.000000	0.200212	0.189297	31.204731
4497.000000	0.201851	0.190433	41.985750
4498.000000	0.184674	0.194724	45.041923
4499.000000	0.219964	0.176046	19.174843
4500.000000	0.193056	0.186044	35.293804
4501.000000	0.181127	0.191989	34.334007
4502.000000	0.249127	0.259370	28.870531
4503.000000	0.258586	0.265884	46.841928
4504.000000	0.273265	0.271188	39.858716
4505.000000	0.232458	0.232715	26.329736
4506.000000	0.271932	0.283106	51.077115
4507.000000	0.389491	0.354100	36.765595
4508.000000	0.311064	0.324705	50.651236
4509.000000	0.271187	0.270630	82.915422
4510.000000	0.251138	0.252543	37.579836
4511.000000	0.846322	0.594692	64.990594
4512.000000	0.264690	0.227090	59.801138
4513.000000	0.309345	0.287791	44.037551
4514.000000	0.321997	0.282272	69.400566
4515.000000	0.288038	0.279374	63.944753
4516.000000	3.130849	1.363794	52.380447
4517.000000	0.238573	0.245505	87.629614
4518.000000	0.282437	0.290099	62.529494
4519.000000	0.250013	0.218612	62.160530
4520.000000	0.207677	0.212912	97.843668
4521.000000	0.230155	0.223831	62.436299
4522.000000	0.271797	0.298744	82.079616
4523.000000	0.250313	0.239959	111.014507
4524.000000	0.207403	0.216680	50.165930
4525.000000	0.212894	0.252112	115.532448
4526.000000	0.190840	0.195029	119.639092
4527.000000	0.194039	0.175509	65.461204
4528.000000	0.181848	0.189651	127.823524
4529.000000	0.181350	0.178534	99.169607
4530.000000	0.155140	0.164958	82.788004
4531.000000	0.140159	0.139382	133.112211
4532.000000	0.154063	0.149030	87.645471
4533.000000	0.151066	0.153601	108.947595
4534.000000	0.132121	0.114847	123.177398
4535.000000	0.143941	0.140550	64.878985
4536.000000	0.137371	0.145568	93.811884
4537.000000	0.134712	0.130731	84.981754
4538.000000	0.137434	0.137718	30.526776
4539.000000	0.118092	0.106694	53.900523
4540.000000	0.122194	0.135882	35.082058
4541.000000	0.111831	0.109171	19.434828
4542.000000	0.111643	0.101817	23.830502
4543.000000	0.106161	0.096137	11.823085
4544.000000	0.106007	0.093796	13.555211
4545.000000	0.102969	0.101672	24.496016
4546.000000	0.113955	0.121311	16.118097
4547.000000	2.915355	0.727920	11.229019
4548.000000	0.101504	0.119912	32.706585
4549.000000	0.095364	0.089763	18.972345
4550.000000	0.098965	0.088403	32.178275
4551.000000	0.100922	0.097648	31.487132
4552.000000	0.115861	0.112193	17.849647
4553.000000	0.088708	0.094368	34.400843
4554.000000	0.097114	0.096392	36.384836
4555.000000	0.091480	0.096904	16.592533
4556.000000	0.084343	0.076758	27.518139
4557.000000	0.096943	0.098273	13.693487
4558.000000	0.089082	0.091408	16.243400
4559.000000	0.096062	0.086045	18.000795
4560.000000	0.090195	0.094109	6.535871
4561.000000	0.098664	0.095671	8.342942
4562.000000	0.097802	0.102356	9.967016
4563.000000	0.086445	0.081553	4.108534
4564.000000	0.082590	0.085241	9.172825
4565.000000	0.079636	0.078369	10.511440
4566.000000	0.082341	0.084646	8.081673
4567.000000	0.090396	0.076645	17.262481
4568.000000	0.086305	0.090516	11.979223
4569.000000	0.087205	0.086170	14.153639
4570.000000	0.085972	0.083540	17.024062
4571.000000	2.174448	0.606014	16.966115
4572.000000	0.077451	0.071470	16.424048
4573.000000	0.479369	0.241339	15.927919
4574.000000	0.083333	0.086139	7.857200
4575.000000	0.084321	0.091802	14.261198
4576.000000	2.022538	0.569308	21.615284
4577.000000	0.092591	0.081359	7.045998
4578.000000	0.090554	0.090118	10.213673
4579.000000	2.206122	0.571698	5.867498
4580.000000	0.089235	0.091047	4.120366
4581.000000	0.088781	0.092843	2.548934
4582.000000	0.070844	0.079839	0.994465
4583.000000	0.078458	0.081036	0.853482
4584.000000	0.072886	0.069557	1.182921
4585.000000	0.091094	0.097800	2.052728
4586.000000	0.080119	0.089213	4.661137
4587.000000	0.082155	0.090354	6.278520
4588.000000	0.090766	0.098489	5.392265
4589.000000	0.093350	0.094939	17.759554
4590.000000	0.079472	0.087653	21.108672
4591.000000	0.081834	0.074154	13.501472
4592.000000	0.073368	0.077001	32.895075
4593.000000	0.088978	0.095332	25.764441
4594.000000	0.074459	0.075596	24.239466
4595.000000	0.080654	0.083499	34.224847
4596.000000	0.076718	0.079554	18.321626
4597.000000	0.087208	0.088167	16.898940
4598.000000	0.079405	0.069038	20.736350
4599.000000	0.081020	0.086736	8.251673
4600.000000	0.086739	0.083750	14.525403
4601.000000	0.079638	0.073691	17.885477
4602.000000	0.075083	0.072690	13.141259
4603.000000	0.084936	0.081217	28.724278
4604.000000	0.078901	0.077396	27.335308
4605.000000	0.078711	0.084526	23.093636
4606.000000	0.071746	0.063886	45.319841
4607.000000	0.088070	0.092542	30.158650
4608.000000	0.086285	0.092633	32.787793
4609.000000	0.098925	0.096296	40.597381
4610.000000	0.080954	0.082314	17.086407
4611.000000	0.094901	0.078608	28.507395
4612.000000	0.086377	0.088509	30.531991
4613.000000	0.076161	0.074024	11.087759
4614.000000	0.081703	0.080360	22.793621
4615.000000	0.090343	0.078449	21.090529
4616.000000	0.094450	0.088446	17.783529
4617.000000	0.082688	0.089956	30.485129
4618.000000	0.089265	0.092291	26.150180
4619.000000	0.085040	0.082592	31.821502
4620.000000	0.094603	0.091224	49.234418
4621.000000	0.077683	0.073059	32.634962
4622.000000	0.083934	0.081497	49.312868
4623.000000	0.598375	0.315873	75.025320
4624.000000	0.088685	0.093548	30.832249
4625.000000	0.091382	0.082810	75.900911
4626.000000	0.084442	0.076476	82.010719
4627.000000	0.081376	0.079479	49.886503
4628.000000	0.082544	0.072771	98.546770
4629.000000	0.096461	0.095733	80.153017
4630.000000	0.087059	0.075930	69.506259
4631.000000	0.107253	0.098227	110.802807
4632.000000	0.100711	0.093033	68.311871
4633.000000	0.084491	0.079858	69.091467
4634.000000	0.092504	0.094003	87.649650
4635.000000	0.083372	0.087815	42.027166
4636.000000	0.092076	0.089074	55.195631
4637.000000	0.095435	0.085496	52.681285
4638.000000	0.092483	0.094118	20.274129
4639.000000	0.100235	0.097451	31.760439
4640.000000	0.091300	0.085244	30.297684
4641.000000	0.091975	0.093826	15.523297
4642.000000	0.095953	0.103301	24.702692
4643.000000	0.092139	0.095202	16.477363
4644.000000	0.087229	0.086597	14.523343
4645.000000	0.094695	0.095703	17.761871
4646.000000	0.091591	0.102383	12.417214
4647.000000	0.105409	0.106584	11.997741
4648.000000	0.101865	0.097156	11.063916
4649.000000	0.099482	0.104522	4.617010
4650.000000	0.108442	0.112544	8.285331
4651.000000	0.104265	0.105863	8.927602
4652.000000	0.108034	0.105666	6.753618
4653.000000	0.101620	0.097266	9.989461
4654.000000	0.515240	0.325283	11.787032
4655.000000	0.093969	0.091861	8.853281
4656.000000	0.098170	0.088117	11.881786
4657.000000	0.117271	0.123183	8.121981
4658.000000	0.119688	0.134361	8.170441
4659.000000	0.119221	0.129766	10.278899
4660.000000	0.112738	0.114473	5.399367
4661.000000	0.126243	0.118008	7.743453
4662.000000	0.119623	0.112613	10.082068
4663.000000	0.123082	0.130305	4.195660
4664.000000	0.131113	0.125556	9.617549
4665.000000	0.131822	0.148061	10.532338
4666.000000	0.139415	0.145250	12.228635
4667.000000	0.138257	0.132088	15.530991
4668.000000	0.134281	0.139382	10.170723
4669.000000	0.131742	0.117458	15.276541
4670.000000	0.146324	0.137067	20.134419
4671.000000	0.151439	0.141256	11.592886
4672.000000	0.131550	0.132017	18.369148
4673.000000	0.170657	0.166457	19.679271
4674.000000	0.138881	0.151859	6.924192
4675.000000	0.135910	0.143637	16.033284
4676.000000	0.152329	0.158632	17.571000
4677.000000	0.164766	0.166701	13.138602
4678.000000	0.160826	0.164719	26.535707
4679.000000	0.141760	0.138936	24.911085
4680.000000	0.139365	0.135212	21.808958
4681.000000	0.172398	0.154469	28.297264
4682.000000	0.158398	0.161770	27.707091
4683.000000	0.153052	0.176215	38.633358
4684.000000	0.153890	0.145180	49.046066
4685.000000	0.140638	0.152090	28.708568
4686.000000	0.166073	0.145292	50.514070
4687.000000	0.153478	0.149559	53.821314
4688.000000	0.160064	0.158293	24.536799
4689.000000	0.148678	0.139862	45.429988
4690.000000	0.167793	0.164228	43.683387
4691.000000	0.153787	0.151419	25.006293
4692.000000	0.175540	0.175401	45.519135
4693.000000	0.153301	0.164713	42.334825
4694.000000	0.376790	0.311600	36.711985
4695.000000	0.146610	0.140559	46.429894
4696.000000	0.148098	0.141840	20.003603
4697.000000	0.173562	0.171273	25.679858
4698.000000	0.153023	0.160195	23.390154
4699.000000	0.160317	0.152769	9.686407
4700.000000	0.158440	0.156982	13.601050
4701.000000	0.149675	0.149395	12.724894
4702.000000	0.149036	0.152207	10.100859
4703.000000	0.169210	0.165674	17.764477
4704.000000	0.151211	0.145927	18.293010
4705.000000	0.173312	0.192346	21.939828
4706.000000	0.147441	0.155551	37.736066
4707.000000	0.153656	0.150396	26.667417
4708.000000	0.147147	0.178911	27.513100
4709.000000	0.141188	0.143235	40.591669
4710.000000	0.135971	0.136824	25.922423
4711.000000	0.151950	0.153242	42.927771
4712.000000	0.144536	0.139876	45.952429
4713.000000	0.128941	0.132110	24.033606
4714.000000	0.144002	0.136763	50.089290
4715.000000	0.147517	0.150985	54.349091
4716.000000	0.165233	0.170226	36.838296
4717.000000	0.154181	0.149175	55.022750
4718.000000	0.136244	0.129334	44.989970
4719.000000	0.416627	0.314823	52.385385
4720.000000	0.135288	0.144804	58.704526
4721.000000	0.143710	0.126202	28.147435
4722.000000	0.141594	0.129465	32.640287
4723.000000	0.136516	0.137110	39.796171
4724.000000	0.135914	0.134233	18.404590
4725.000000	0.131525	0.130842	32.790282
4726.000000	0.147872	0.145693	24.174409
4727.000000	0.153999	0.141071	14.470241
4728.000000	0.159347	0.168112	24.091093
4729.000000	0.132755	0.125896	15.619337
4730.000000	0.153675	0.154148	10.735874
4731.000000	0.144132	0.140764	10.448316
4732.000000	0.153601	0.146522	8.930548
4733.000000	0.145813	0.152271	5.575126
4734.000000	0.149837	0.155547	9.687352
4735.000000	0.126641	0.115610	2.544344
4736.000000	0.447408	0.331477	6.628553
4737.000000	0.141177	0.154167	6.907742
4738.000000	0.156292	0.165085	5.901976
4739.000000	0.140190	0.129875	10.088563
4740.000000	0.141841	0.139112	12.518782
4741.000000	1.156539	0.557758	15.625869
4742.000000	0.136726	0.122473	33.374412
4743.000000	0.137684	0.145930	33.068888
4744.000000	0.131993	0.141566	40.131356
4745.000000	0.138075	0.134877	62.146119
4746.000000	0.148510	0.136945	35.820159
4747.000000	0.146803	0.132504	56.935701
4748.000000	0.126434	0.112686	76.485789
4749.000000	0.148495	0.144279	33.418174
4750.000000	1.105122	0.542900	80.985409
4751.000000	0.136922	0.127962	83.426355
4752.000000	0.145580	0.148285	47.351102
4753.000000	0.147658	0.127500	101.142275
4754.000000	0.132877	0.126683	83.068297
4755.000000	0.133860	0.117060	72.235207
4756.000000	0.115868	0.111834	111.253440
4757.000000	0.141340	0.132134	83.626127
4758.000000	0.137930	0.141864	98.877963
4759.000000	0.146528	0.147957	140.025134
4760.000000	0.123142	0.116485	96.049883
4761.000000	0.145917	0.138080	148.885460
4762.000000	0.140314	0.131481	207.620688
4763.000000	0.141150	0.148277	103.925766
4764.000000	0.134051	0.131956	273.784598
4765.000000	0.132669	0.127515	276.490437
4766.000000	0.138419	0.131784	189.858801
4767.000000	0.122812	0.116716	370.261058
4768.000000	0.135361	0.141239	263.892645
4769.000000	0.120607	0.116618	255.712954
4770.000000	0.121011	0.118337	382.153482
4771.000000	0.124250	0.112795	226.057526
4772.000000	0.133741	0.138663	320.571720
4773.000000	0.133215	0.129939	398.480442
4774.000000	0.139261	0.127890	170.725442
4775.000000	0.126245	0.131448	361.289353
4776.000000	0.131844	0.128935	370.548077
4777.000000	0.118827	0.110333	214.151060
4778.000000	2.164148	0.723914	379.700432
4779.000000	0.135675	0.138280	369.885404
4780.000000	0.129791	0.114037	335.604373
4781.000000	0.110199	0.116618	501.382641
4782.000000	0.120706	0.133445	366.232429
4783.000000	0.121682	0.124854	432.419547
4784.000000	0.120308	0.113793	571.609178
4785.000000	0.120211	0.122963	316.391244
4786.000000	0.130165	0.136779	512.816255
4787.000000	0.130778	0.127684	577.569576
4788.000000	0.123402	0.147580	271.967428
4789.000000	0.115827	0.113955	608.702038
4790.000000	0.121374	0.107827	554.631446
4791.000000	0.132446	0.131409	349.782162
4792.000000	0.134035	0.134466	607.076188
4793.000000	0.118837	0.132005	440.486273
4794.000000	0.120519	0.135979	404.507027
4795.000000	0.124294	0.108222	570.770466
4796.000000	0.111262	0.103304	308.570500
4797.000000	0.108030	0.115542	432.463389
4798.000000	0.105077	0.105920	507.888247
4799.000000	0.116340	0.124561	209.622441
4800.000000	0.107857	0.114265	446.105855
4801.000000	0.118220	0.116132	430.570097
4802.000000	0.126979	0.132425	259.114176
4803.000000	0.105453	0.114035	513.240382
4804.000000	0.115657	0.122389	442.228254
4805.000000	0.111683	0.111852	402.858320
4806.000000	0.114506	0.113509	650.967511
4807.000000	0.122560	0.129716	454.772760
4808.000000	0.117890	0.119617	532.837097
4809.000000	0.125192	0.129930	664.382837
4810.000000	0.122209	0.121427	361.058265
4811.000000	0.116885	0.109183	576.585594
4812.000000	0.119110	0.113832	641.610554
4813.000000	0.126104	0.126382	276.763986
4814.000000	0.109730	0.115268	648.926940
4815.000000	0.115183	0.149701	576.273330
4816.000000	0.124633	0.138692	379.769421
4817.000000	0.129103	0.123002	718.493362
4818.000000	0.127029	0.127681	543.802214
4819.000000	0.121702	0.123186	499.587314
4820.000000	0.113342	0.109814	740.403217
4821.000000	0.119840	0.134324	469.836179
4822.000000	0.122815	0.138294	647.256357
4823.000000	0.118658	0.135389	753.808424
4824.000000	0.141106	0.159727	357.214501
4825.000000	0.115814	0.133090	707.657423
4826.000000	0.128892	0.117271	722.625377
4827.000000	0.132164	0.123762	436.668195
4828.000000	0.135039	0.181531	838.848796
4829.000000	0.125517	0.128819	706.185642
4830.000000	0.124270	0.135568	613.776640
4831.000000	0.123414	0.152393	933.803371
4832.000000	0.119331	0.140620	647.286947
4833.000000	0.122274	0.124005	741.819767
4834.000000	0.117238	0.120840	951.116773
4835.000000	0.116283	0.114745	501.424183
4836.000000	0.111024	0.108059	777.629591
4837.000000	0.129552	0.140791	878.182910
4838.000000	0.130133	0.130461	390.705212
4839.000000	0.115471	0.103677	855.691998
4840.000000	0.135532	0.150990	779.650901
4841.000000	0.119392	0.135595	470.198067
4842.000000	0.100537	0.094818	864.883095
4843.000000	0.109881	0.107120	591.595206
4844.000000	0.139945	0.164821	563.795868
4845.000000	0.124264	0.114588	750.261668
4846.000000	0.136550	0.149272	420.311220
4847.000000	0.133045	0.152376	549.950606
4848.000000	0.131309	0.132759	621.278831
4849.000000	0.122812	0.119768	274.368932
4850.000000	0.123775	0.118985	525.320640
4851.000000	0.115884	0.121077	489.293352
4852.000000	0.114308	0.119171	242.937144
4853.000000	0.133523	0.133021	473.096828
4854.000000	0.117976	0.105257	378.692501
4855.000000	0.114027	0.125079	270.500375
4856.000000	0.126339	0.126854	420.762500
4857.000000	0.117934	0.120341	262.787165
4858.000000	0.128099	0.131088	302.047891
4859.000000	0.107839	0.106266	337.245901
4860.000000	0.140431	0.128598	188.948091
4861.000000	0.371327	0.255494	295.374176
4862.000000	0.118599	0.121465	306.109538
4863.000000	0.118900	0.111329	133.946126
4864.000000	0.231573	0.201309	321.767516
4865.000000	0.110501	0.110970	268.941779
4866.000000	0.115248	0.100560	201.407722
4867.000000	0.104481	0.110134	376.298403
4868.000000	0.116902	0.122203	267.450723
4869.000000	0.122367	0.120826	240.528848
4870.000000	0.105856	0.115180	355.464055
4871.000000	0.110160	0.106409	198.289360
4872.000000	0.132320	0.121790	262.372298
4873.000000	0.110907	0.117565	294.713773
4874.000000	0.105699	0.098334	126.983856
4875.000000	0.103561	0.101602	267.773763
4876.000000	0.453303	0.273509	237.992019
4877.000000	0.113035	0.109334	114.478182
4878.000000	0.110778	0.115661	197.130879
4879.000000	0.098960	0.099012	156.877124
4880.000000	0.121764	0.121170	127.260449
4881.000000	0.090957	0.090004	183.930739
4882.000000	0.095641	0.091988	126.273134
4883.000000	0.107337	0.102455	120.690658
4884.000000	0.106528	0.111287	144.083274
4885.000000	0.110199	0.108988	75.809134
4886.000000	0.109464	0.109191	107.738567
4887.000000	0.107203	0.105011	118.043673
4888.000000	0.101371	0.114914	54.347154
4889.000000	0.085275	0.084662	132.918714
4890.000000	0.086959	0.085272	125.893407
4891.000000	0.096591	0.087267	90.863925
4892.000000	0.105385	0.105908	178.184088
4893.000000	0.088784	0.083872	143.490692
4894.000000	0.102273	0.105769	143.314155
4895.000000	0.094725	0.089392	224.629667
4896.000000	0.095509	0.090032	133.392563
4897.000000	0.090982	0.090023	170.332520
4898.000000	0.098318	0.103728	196.180802
4899.000000	1.507978	0.584688	100.951747
4900.000000	0.101839	0.090585	190.064394
4901.000000	0.098970	0.097584	172.871511
4902.000000	0.105311	0.103675	90.840057
4903.000000	0.106906	0.105057	159.481392
4904.000000	0.101138	0.109495	120.526344
4905.000000	0.097863	0.106556	96.326776
4906.000000	0.770220	0.336283	153.637773
4907.000000	0.108722	0.107452	101.568091
4908.000000	0.098141	0.098521	110.959797
4909.000000	0.093817	0.076476	140.946127
4910.000000	0.098212	0.095353	77.716676
4911.000000	0.100754	0.091939	126.975325
4912.000000	0.096650	0.094185	142.554007
4913.000000	0.086732	0.084078	66.892652
4914.000000	0.094991	0.097837	151.638072
4915.000000	0.103784	0.109887	150.901423
4916.000000	0.097740	0.088029	93.952365
4917.000000	0.102256	0.103782	183.638818
4918.000000	0.108566	0.112282	125.578451
4919.000000	0.102344	0.095018	128.485590
4920.000000	0.096278	0.079758	196.405017
4921.000000	0.094474	0.093267	106.767183
4922.000000	0.103030	0.104991	151.383587
4923.000000	0.098726	0.107820	175.916125
4924.000000	0.099212	0.105577	77.553818
4925.000000	0.109110	0.108808	159.670718
4926.000000	0.096307	0.096688	159.394494
4927.000000	0.095327	0.098750	83.173670
4928.000000	0.096622	0.093805	167.142728
4929.000000	0.106295	0.100965	134.623103
4930.000000	0.094892	0.094412	111.283532
4931.000000	0.509581	0.318904	197.282462
4932.000000	0.093836	0.099462	112.146269
4933.000000	0.100839	0.098445	150.533997
4934.000000	0.106977	0.101950	185.881548
4935.000000	0.104534	0.095509	105.088203
4936.000000	0.103294	0.101876	163.791889
4937.000000	0.108428	0.104489	169.804853
4938.000000	0.104878	0.099829	77.098192
4939.000000	0.096050	0.097614	164.716085
4940.000000	0.109720	0.109646	159.140580
4941.000000	0.099031	0.099240	112.333060
4942.000000	0.107673	0.115538	214.641176
4943.000000	0.099203	0.102003	152.396479
4944.000000	0.096473	0.091998	151.697677
4945.000000	0.101240	0.095866	213.235758
4946.000000	0.194509	0.178662	110.679127
4947.000000	0.100145	0.095364	159.268822
4948.000000	0.114084	0.122444	165.607871
4949.000000	0.110674	0.125853	74.438424
4950.000000	0.100151	0.086552	164.368971
4951.000000	0.110272	0.117126	179.676896
4952.000000	0.111094	0.119083	122.408332
4953.000000	0.103544	0.098622	222.127500
4954.000000	0.116685	0.114031	187.139542
4955.000000	0.112514	0.114044	168.040829
4956.000000	0.113938	0.108029	280.908422
4957.000000	0.117182	0.129500	195.669329
4958.000000	0.112923	0.123772	260.657132
4959.000000	0.118399	0.114547	358.109836
4960.000000	0.107271	0.108319	190.937512
4961.000000	0.106562	0.106303	313.042461
4962.000000	0.124316	0.123423	313.256712
4963.000000	0.119727	0.121334	136.111959
4964.000000	0.113342	0.115591	320.326356
4965.000000	0.129718	0.124853	292.841444
4966.000000	0.133554	0.125052	190.758789
4967.000000	0.117346	0.120602	348.894860
4968.000000	0.140301	0.168099	248.378645
4969.000000	0.130251	0.151249	243.228251
4970.000000	0.119742	0.117572	320.979947
4971.000000	0.124163	0.116452	176.279612
4972.000000	0.128450	0.118196	253.350264
4973.000000	0.118668	0.131712	268.361821
4974.000000	0.124691	0.115307	115.402132
4975.000000	0.134030	0.130819	236.903910
4976.000000	0.123595	0.129646	212.200295
4977.000000	0.125758	0.119171	115.547079
4978.000000	0.124732	0.109262	234.101730
4979.000000	0.125816	0.114341	176.472383
4980.000000	0.148418	0.141596	158.635189
4981.000000	0.138095	0.145656	245.089566
4982.000000	0.152463	0.130754	153.029508
4983.000000	0.137934	0.127355	179.918238
4984.000000	0.121718	0.109719	231.104229
4985.000000	0.134705	0.138200	122.507971
4986.000000	0.143238	0.143510	209.533742
4987.000000	0.131068	0.133484	238.756765
4988.000000	0.138838	0.127017	117.233743
4989.000000	0.130854	0.121180	268.279656
4990.000000	0.117847	0.128833	232.069773
4991.000000	0.124847	0.113602	155.190628
4992.000000	0.147371	0.156206	268.855289
4993.000000	0.153811	0.153182	180.779264
4994.000000	0.153684	0.145656	157.968090
4995.000000	0.149717	0.151989	235.700310
4996.000000	0.131646	0.117773	134.193824
4997.000000	0.169281	0.179385	168.833884
4998.000000	0.146451	0.140545	187.175145
4999.000000	0.841259	0.456916	82.828304
5000.000000	0.139173	0.131016	131.697952
5001.000000	0.162668	0.152555	127.086195
5002.000000	0.146779	0.135636	56.182306
5003.000000	0.147848	0.148318	96.605419
5004.000000	0.151763	0.137308	75.762777
5005.000000	0.145734	0.144111	52.731276
5006.000000	0.136380	0.138376	87.966957
5007.000000	0.129487	0.118947	61.661649
5008.000000	0.166845	0.148225	72.239647
5009.000000	0.152166	0.147847	91.022901
5010.000000	0.134141	0.123308	53.821438
5011.000000	0.135939	0.125719	92.367384
5012.000000	0.160709	0.162356	104.037044
5013.000000	0.167790	0.165281	46.923227
5014.000000	0.148582	0.150069	99.940655
5015.000000	0.152272	0.154739	85.205799
5016.000000	0.160845	0.157173	56.565956
5017.000000	0.146924	0.139604	97.170540
5018.000000	0.148881	0.133797	76.176319
5019.000000	0.169637	0.151277	61.979363
5020.000000	0.163500	0.171073	82.079453
5021.000000	0.157837	0.172530	42.072573
5022.000000	0.169942	0.172008	59.664683
5023.000000	0.172760	0.162807	70.377614
5024.000000	0.149647	0.123639	35.289162
5025.000000	0.141453	0.145302	70.943117
5026.000000	0.151885	0.160064	76.091898
5027.000000	0.164509	0.142475	46.881948
5028.000000	0.155889	0.148246	93.169924
5029.000000	0.156851	0.150159	83.782738
5030.000000	0.159928	0.160647	66.208360
5031.000000	0.184450	0.186962	118.133736
5032.000000	0.158524	0.168299	89.596590
5033.000000	0.151805	0.149277	84.144603
5034.000000	0.161792	0.163838	102.938418
5035.000000	0.171315	0.166335	53.572263
5036.000000	0.141057	0.136687	86.807182
5037.000000	0.160409	0.163777	99.799587
5038.000000	0.169945	0.178689	44.748415
5039.000000	0.162604	0.181379	86.985894
5040.000000	0.160127	0.142162	84.323861
5041.000000	0.159268	0.163753	43.421060
5042.000000	0.149771	0.140344	80.557508
5043.000000	0.166174	0.159832	65.225272
5044.000000	0.204749	0.196741	53.197642
5045.000000	0.197394	0.211089	90.359223
5046.000000	0.187817	0.178359	51.863464
5047.000000	0.175287	0.189975	71.785325
5048.000000	0.175328	0.178933	88.662487
5049.000000	0.175526	0.188545	50.719473
5050.000000	0.190822	0.198276	100.414663
5051.000000	0.176061	0.164962	114.872251
5052.000000	0.184469	0.156542	59.977350
5053.000000	0.197469	0.185353	116.566577
5054.000000	0.226462	0.228247	98.532936
5055.000000	0.214357	0.206711	78.800888
5056.000000	0.204468	0.181562	120.933973
5057.000000	0.236373	0.217151	101.383163
5058.000000	0.207669	0.214911	112.992892
5059.000000	0.205697	0.187542	124.577369
5060.000000	0.841681	0.537991	62.953927
5061.000000	0.195781	0.204537	132.065365
5062.000000	0.181366	0.180578	133.216681
5063.000000	0.245679	0.222976	60.045664
5064.000000	0.179948	0.165713	117.004602
5065.000000	0.218021	0.214455	97.908055
5066.000000	0.202949	0.190411	53.995112
5067.000000	0.220994	0.224064	77.332117
5068.000000	0.198489	0.204828	53.042264
5069.000000	0.222465	0.218852	50.755485
5070.000000	0.197119	0.190604	95.365326
5071.000000	0.194837	0.156994	45.257234
5072.000000	0.162457	0.157652	69.924495
5073.000000	0.193274	0.185962	73.058014
5074.000000	0.202607	0.207177	38.236792
5075.000000	0.205925	0.208127	70.973015
5076.000000	0.234218	0.230913	79.201333
5077.000000	0.279318	0.298080	56.130810
5078.000000	0.350479	0.372345	76.651470
5079.000000	0.250203	0.251986	50.221451
5080.000000	0.285290	0.297527	43.775797
5081.000000	0.297092	0.373660	84.757192
5082.000000	0.239677	0.236699	62.807204
5083.000000	0.271006	0.264694	70.187520
5084.000000	0.302250	0.284691	90.984277
5085.000000	0.329178	0.347534	49.797662
5086.000000	0.259515	0.238017	78.844971
5087.000000	0.255517	0.247711	84.598523
5088.000000	0.245219	0.220830	31.109337
5089.000000	0.286585	0.307810	50.233440
5090.000000	0.238695	0.234119	26.536719
5091.000000	0.205216	0.206972	17.512117
5092.000000	0.259252	0.268253	22.786532
5093.000000	0.247688	0.266836	15.803846
5094.000000	0.214345	0.189796	14.017577
5095.000000	0.232144	0.232309	21.010978
5096.000000	0.231724	0.217384	11.378938
5097.000000	0.223048	0.207740	24.255499
5098.000000	0.216536	0.208379	40.640783
5099.000000	0.196999	0.195294	23.183663
5100.000000	0.188001	0.199783	37.200605
5101.000000	0.197565	0.203524	40.273041
5102.000000	0.200841	0.189594	27.362024
5103.000000	0.188744	0.193015	70.841252
5104.000000	0.199878	0.198623	65.108882
5105.000000	0.192093	0.180733	50.596549
5106.000000	0.172310	0.163766	79.302758
5107.000000	0.185520	0.174754	51.113527
5108.000000	0.189644	0.184923	58.046034
5109.000000	0.178154	0.177191	82.932332
5110.000000	0.175145	0.178875	47.832488
5111.000000	0.189163	0.187648	82.234536
5112.000000	0.180828	0.193403	79.059664
5113.000000	0.174015	0.174439	28.447899
5114.000000	0.192738	0.190065	47.927367
5115.000000	0.185979	0.216836	34.913710
5116.000000	0.169908	0.155185	19.652226
5117.000000	0.142058	0.143652	28.976805
5118.000000	0.160102	0.149279	20.896761
5119.000000	0.164591	0.155933	15.075431
5120.000000	0.159164	0.179268	21.131428
5121.000000	0.158916	0.151708	14.647338
5122.000000	0.163884	0.173498	29.425199
5123.000000	0.164626	0.174180	36.258022
5124.000000	0.174613	0.178593	23.362611
5125.000000	0.159662	0.140315	43.316641
5126.000000	0.166673	0.152827	52.143919
5127.000000	0.156816	0.149024	23.619158
5128.000000	0.184113	0.163848	54.646445
5129.000000	3.221129	1.069486	28.310862
5130.000000	0.163613	0.160093	41.667941
5131.000000	0.171132	0.162445	63.559769
5132.000000	0.145299	0.142041	48.280375
5133.000000	0.173650	0.159122	51.067376
5134.000000	0.181943	0.205637	45.767725
5135.000000	0.159893	0.158289	23.979297
5136.000000	0.171286	0.158404	47.410677
5137.000000	0.178884	0.187827	42.397752
5138.000000	0.166233	0.164437	28.472899
5139.000000	0.170704	0.159461	47.895283
5140.000000	0.156676	0.150785	45.542972
5141.000000	0.179884	0.168255	26.780624
5142.000000	0.195583	0.193009	42.814694
5143.000000	0.155759	0.156772	30.227744
5144.000000	0.174696	0.164130	25.950686
5145.000000	0.196872	0.168443	31.297839
5146.000000	0.159948	0.148675	14.267045
5147.000000	0.164622	0.171688	21.693193
5148.000000	0.166241	0.193862	23.491909
5149.000000	0.153920	0.153867	17.496201
5150.000000	0.181541	0.187571	31.263324
5151.000000	0.161962	0.165338	49.069500
5152.000000	0.177287	0.182123	34.659215
5153.000000	0.178633	0.181377	57.381528
5154.000000	0.155225	0.156684	48.254105
5155.000000	0.171965	0.160849	34.899710
5156.000000	0.150638	0.158137	61.731835
5157.000000	0.175324	0.171847	43.782758
5158.000000	0.151345	0.143999	57.953546
5159.000000	0.176267	0.166796	75.267876
5160.000000	0.150829	0.157540	36.431391
5161.000000	0.168723	0.153212	59.953775
5162.000000	0.168055	0.184024	60.763379
5163.000000	0.172895	0.167980	30.827999
5164.000000	0.170946	0.160319	49.637041
5165.000000	0.166177	0.152097	37.989667
5166.000000	0.167670	0.164983	20.570716
5167.000000	0.160553	0.155199	30.497886
5168.000000	0.141270	0.138466	23.882607
5169.000000	0.166440	0.162435	15.338860
5170.000000	0.149788	0.143248	19.816355
5171.000000	0.147293	0.146849	15.104095
5172.000000	0.154908	0.130323	15.161990
5173.000000	0.154102	0.147842	16.198295
5174.000000	0.159341	0.158898	8.768261
5175.000000	0.152835	0.164006	7.634734
5176.000000	0.153240	0.148947	8.799927
5177.000000	0.151659	0.156241	6.304980
5178.000000	0.161182	0.165469	16.833610
5179.000000	0.142853	0.148587	16.322787
5180.000000	0.162733	0.160830	12.265444
5181.000000	0.142555	0.151074	13.605265
5182.000000	0.125460	0.125109	8.169727
5183.000000	0.139496	0.140333	4.071552
5184.000000	0.147410	0.143502	1.208954
5185.000000	0.145929	0.138406	1.051646
5186.000000	0.172022	0.151564	2.859557
5187.000000	0.158756	0.162040	2.467883
5188.000000	0.144217	0.169577	2.621448
5189.000000	0.150499	0.160171	7.326918
5190.000000	0.138075	0.134737	5.265793
5191.000000	0.151461	0.132845	2.727863
5192.000000	0.150794	0.151725	7.705815
5193.000000	0.145642	0.143496	2.498453
5194.000000	0.145091	0.139125	2.801418
5195.000000	0.138260	0.141647	4.791443
5196.000000	0.150818	0.140041	2.555616
5197.000000	0.134617	0.127588	4.649857
5198.000000	0.144702	0.150004	6.886317
5199.000000	0.128783	0.121237	1.915621
5200.000000	0.141591	0.123102	4.822946
5201.000000	0.132247	0.120859	8.582172
5202.000000	0.138977	0.136929	2.911637
5203.000000	0.146645	0.163950	5.237474
5204.000000	0.146089	0.156702	2.027835
5205.000000	0.126572	0.112729	1.211434
5206.000000	0.141458	0.131152	3.083322
5207.000000	0.130280	0.137821	0.601151
5208.000000	0.131847	0.131417	0.715931
5209.000000	0.126397	0.122277	0.463985
5210.000000	0.133288	0.135452	0.696438
5211.000000	0.121891	0.125827	0.694407
5212.000000	2.368558	0.839794	3.809025
5213.000000	0.138800	0.136329	1.012366
5214.000000	0.136931	0.142604	0.643746
5215.000000	0.136859	0.116357	1.005146
5216.000000	0.154053	0.150779	0.990278
5217.000000	0.145286	0.136360	0.873444
5218.000000	0.129191	0.135518	0.834852
5219.000000	0.136898	0.134111	2.515327
5220.000000	0.141773	0.131940	1.947355
5221.000000	0.122836	0.137224	2.043107
5222.000000	0.125940	0.116282	1.044661
5223.000000	0.132272	0.126623	3.497396
5224.000000	0.129664	0.126611	2.410983
5225.000000	0.125404	0.127619	6.008062
5226.000000	0.131667	0.126258	5.999048
5227.000000	0.146671	0.148613	2.822169
5228.000000	0.138552	0.125491	2.920138
5229.000000	0.848256	0.463924	3.584617
5230.000000	0.121618	0.126050	3.432518
5231.000000	0.144264	0.149691	5.274181
5232.000000	0.123434	0.106394	3.215577
5233.000000	0.158743	0.138819	5.789993
5234.000000	0.127205	0.126892	9.757150
5235.000000	0.141553	0.145796	8.204309
5236.000000	0.127623	0.134455	13.936102
5237.000000	0.146396	0.138282	20.165855
5238.000000	0.115057	0.117205	10.100273
5239.000000	0.124606	0.128896	20.901850
5240.000000	0.133898	0.153277	20.485458
5241.000000	0.119243	0.121123	13.965998
5242.000000	0.120796	0.134544	27.392504
5243.000000	0.136415	0.133077	17.190243
5244.000000	0.140103	0.136155	16.942950
5245.000000	0.130994	0.137653	27.882529
5246.000000	0.126562	0.142000	16.300853
5247.000000	0.129190	0.131588	20.207950
5248.000000	0.135237	0.141061	23.761899
5249.000000	0.125234	0.116927	10.640089
5250.000000	0.127874	0.114856	14.323726
5251.000000	0.147243	0.145558	14.538310
5252.000000	0.117250	0.138954	9.926179
5253.000000	0.133297	0.144800	15.364516
5254.000000	0.132802	0.134327	12.083795
5255.000000	0.130749	0.125520	12.550537
5256.000000	0.126634	0.134509	21.260354
5257.000000	0.140773	0.138738	13.993787
5258.000000	0.132997	0.133490	10.046067
5259.000000	0.124945	0.111810	11.570894
5260.000000	0.131983	0.121015	4.322310
5261.000000	0.134621	0.127830	10.048884
5262.000000	0.131718	0.128560	12.584972
5263.000000	0.141118	0.138403	6.041388
5264.000000	0.145258	0.138440	13.567098
5265.000000	0.142451	0.127824	15.095240
5266.000000	0.148804	0.160416	10.777973
5267.000000	0.124477	0.118872	18.116882
5268.000000	0.124486	0.128584	22.895893
5269.000000	0.147817	0.146657	17.057065
5270.000000	0.139020	0.129008	43.351290
5271.000000	0.135608	0.136386	31.065131
5272.000000	0.134551	0.120560	40.191547
5273.000000	0.141723	0.142499	57.611549
5274.000000	0.131169	0.135093	30.690131
5275.000000	0.136988	0.130734	46.380282
5276.000000	0.128943	0.124561	53.494199
5277.000000	0.137707	0.129203	26.543539
5278.000000	0.130117	0.117638	57.095039
5279.000000	0.126311	0.123802	47.580986
5280.000000	0.130999	0.135623	34.080147
5281.000000	0.130407	0.132815	64.151346
5282.000000	0.128753	0.124395	37.396017
5283.000000	0.121887	0.109271	44.952274
5284.000000	0.126354	0.109118	47.982621
5285.000000	0.126017	0.112910	27.821667
5286.000000	0.122868	0.123566	48.813907
5287.000000	0.119946	0.118095	62.949522
5288.000000	0.105256	0.099113	28.062224
5289.000000	0.131343	0.136572	62.080625
5290.000000	0.142752	0.143748	70.513178
5291.000000	0.112486	0.106703	40.943834
5292.000000	0.101731	0.100202	75.306315
5293.000000	0.125948	0.121429	62.390974
5294.000000	0.123569	0.120987	55.969299
5295.000000	0.161730	0.164780	95.825234
5296.000000	0.108121	0.117594	54.418132
5297.000000	0.116899	0.111560	69.737456
5298.000000	0.818168	0.396390	85.484214
5299.000000	0.121930	0.113170	34.766674
5300.000000	0.127793	0.137664	48.426893
5301.000000	0.108340	0.114728	54.233153
5302.000000	0.124489	0.117181	25.392998
5303.000000	0.106723	0.099060	43.509485
5304.000000	0.122867	0.117037	29.639722
5305.000000	0.110343	0.111358	26.760842
5306.000000	0.116207	0.118088	37.755058
5307.000000	0.113577	0.105130	28.848763
5308.000000	0.101022	0.101562	32.186735
5309.000000	0.106064	0.110765	49.496276
5310.000000	0.122044	0.113043	29.152707
5311.000000	0.115666	0.115924	47.770495
5312.000000	0.116082	0.114908	78.093756
5313.000000	0.125971	0.128131	39.535184
5314.000000	1.640243	0.802873	57.736282
5315.000000	0.018652	0.018724	9.903584
5316.000000	0.085830	0.054118	5.292230
5317.000000	0.017362	0.018600	9.347026
5318.000000	1.365011	0.928765	10.916150
5319.000000	2.484056	2.628974	43.340092
5320.000000	0.104559	0.101220	71.806207
5321.000000	0.106995	0.099936	39.859198
5322.000000	0.092612	0.090946	61.751628
5323.000000	0.087456	0.082451	84.533267
5324.000000	0.112642	0.106555	36.480724
5325.000000	0.109866	0.109933	55.997777
5326.000000	0.100336	0.104518	47.286868
5327.000000	0.102661	0.100973	28.900016
5328.000000	0.107969	0.101901	45.839875
5329.000000	0.167486	0.147486	39.830926
5330.000000	0.093959	0.092716	35.278478
5331.000000	0.108283	0.113050	62.268518
5332.000000	0.108769	0.116794	47.439473
5333.000000	0.105917	0.107572	68.132786
5334.000000	0.101548	0.109529	83.321835
5335.000000	0.101428	0.107562	52.291134
5336.000000	0.103627	0.104410	94.555523
5337.000000	0.094026	0.095241	99.032932
5338.000000	0.091503	0.088906	52.439150
5339.000000	0.088099	0.089619	111.999655
5340.000000	0.088894	0.088535	105.680406
5341.000000	0.102164	0.107206	73.538173
5342.000000	0.098525	0.093723	151.619910
5343.000000	0.085387	0.086059	121.186812
5344.000000	0.089702	0.081989	96.471303
5345.000000	0.090260	0.078128	138.017710
5346.000000	0.103595	0.115635	84.835330
5347.000000	0.093336	0.092059	126.498745
5348.000000	0.091683	0.094339	156.918741
5349.000000	0.106513	0.111075	77.290187
5350.000000	0.098957	0.101223	149.649881
5351.000000	0.841753	0.416896	143.618703
5352.000000	0.096161	0.102908	87.310811
5353.000000	0.101395	0.095900	154.968530
5354.000000	0.098939	0.095919	113.217274
5355.000000	0.103706	0.111127	80.346843
5356.000000	0.098206	0.105573	118.727843
5357.000000	0.095445	0.098870	90.821194
5358.000000	0.101882	0.098683	81.478249
5359.000000	0.094303	0.095902	99.102680
5360.000000	0.097144	0.089426	49.279129
5361.000000	0.095999	0.089537	71.795271
5362.000000	0.095651	0.096286	83.783299
5363.000000	0.099581	0.097814	43.585134
5364.000000	0.100355	0.092367	87.383834
5365.000000	0.218362	0.190229	74.902169
5366.000000	0.105668	0.101512	56.091366
5367.000000	0.090197	0.087320	103.186928
5368.000000	0.101757	0.099331	74.875256
5369.000000	0.090247	0.088895	66.435607
5370.000000	0.088663	0.093574	104.250156
5371.000000	0.090361	0.091559	46.871592
5372.000000	0.101598	0.106304	75.481946
5373.000000	0.097811	0.101315	83.578953
5374.000000	0.099204	0.105218	44.883525
5375.000000	0.101928	0.109873	75.000102
5376.000000	0.107675	0.105651	81.987023
5377.000000	0.085449	0.085615	38.837802
5378.000000	0.097625	0.096391	69.148871
5379.000000	0.083289	0.078252	57.741694
5380.000000	0.103835	0.091502	41.833288
5381.000000	0.088407	0.079773	65.258422
5382.000000	0.100272	0.092272	46.535039
5383.000000	0.086819	0.085026	44.639644
5384.000000	0.095543	0.091858	56.150026
5385.000000	0.092068	0.109343	25.851215
5386.000000	0.091809	0.098534	41.638425
5387.000000	0.094968	0.085137	41.840950
5388.000000	0.093835	0.088892	18.751261
5389.000000	0.104275	0.104460	31.440989
5390.000000	0.411025	0.262060	20.575625
5391.000000	0.724269	0.339562	10.893599
5392.000000	0.091761	0.100064	19.300653
5393.000000	0.097021	0.096573	15.516479
5394.000000	0.110812	0.111223	14.924491
5395.000000	0.091691	0.096514	19.675614
5396.000000	0.089176	0.087280	13.619315
5397.000000	0.092000	0.095222	22.674275
5398.000000	0.103706	0.107581	28.909555
5399.000000	0.086695	0.083562	13.794835
5400.000000	0.084573	0.096242	28.022928
5401.000000	0.094591	0.088081	32.822772
5402.000000	0.104731	0.111479	15.033766
5403.000000	0.095195	0.087304	31.879970
5404.000000	0.999494	0.437901	36.701035
5405.000000	0.098344	0.096768	25.603377
5406.000000	0.097965	0.094643	45.373204
5407.000000	0.111351	0.101233	28.754718
5408.000000	0.105442	0.092932	30.379692
5409.000000	0.100495	0.090033	36.945042
5410.000000	0.083933	0.082554	17.283936
5411.000000	0.103138	0.120441	30.479592
5412.000000	0.097943	0.098987	34.815687
5413.000000	0.111265	0.116119	20.252123
5414.000000	0.083782	0.076024	33.372210
5415.000000	1.177715	0.439733	43.875777
5416.000000	0.083227	0.084558	22.461046
5417.000000	0.094925	0.094863	36.150351
5418.000000	1.506204	0.494788	21.035524
