

# default power level
# Scan parameters: power 16.000000 dBm, bandwidth 1.500000 Hz
# Frequency [MHz]	avg noise	std noise	peak value
3850.000000	1.450578	1.676843	1166.935126
3851.000000	1.232362	1.303063	1275.599125
3852.000000	1.183014	1.170759	813.834113
3853.000000	1.108079	1.178479	1672.251842
3854.000000	0.945140	0.890200	1353.519609
3855.000000	1.132385	1.175688	1293.391103
3856.000000	0.993213	1.112246	2040.571685
3857.000000	1.047299	0.911805	1475.643776
3858.000000	0.868041	0.860404	1872.107947
3859.000000	0.941711	0.887371	2317.731453
3860.000000	0.699767	0.710506	1377.554330
3861.000000	0.850573	0.855935	2309.883756
3862.000000	0.817419	0.875934	2483.170098
3863.000000	0.739497	0.775937	1326.390605
3864.000000	0.705590	0.742780	2864.482983
3865.000000	0.757478	0.819228	2637.609328
3866.000000	0.713252	0.782683	1830.123089
3867.000000	0.671749	0.661295	3378.487591
3868.000000	0.642457	0.631951	2313.225361
3869.000000	0.745168	0.718947	2267.836977
3870.000000	0.580800	0.495524	3173.917881
3871.000000	0.604441	0.612727	1625.457704
3872.000000	0.575411	0.640311	2409.894947
3873.000000	0.612671	0.654603	2707.474048
3874.000000	0.558482	0.541523	1107.428095
3875.000000	0.540243	0.554123	2398.309499
3876.000000	0.657745	0.639847	2274.905927
3877.000000	0.759587	0.776404	1316.479240
3878.000000	0.559138	0.570488	2535.587147
3879.000000	0.603806	0.668390	1939.022963
3880.000000	0.671113	0.694000	1664.176969
3881.000000	0.769023	0.805525	2477.393907
3882.000000	0.667622	0.622167	1471.888256
3883.000000	0.680797	0.662642	1810.472729
3884.000000	0.654186	0.578420	2220.121830
3885.000000	0.801819	0.776783	1138.494664
3886.000000	0.612890	0.664763	1838.633389
3887.000000	0.709024	0.686761	2083.735221
3888.000000	0.683056	0.711452	951.903516
3889.000000	0.660968	0.628252	1956.267995
3890.000000	0.681255	0.678471	1752.625406
3891.000000	0.752036	0.719489	1073.560971
3892.000000	0.801872	0.826317	1859.207894
3893.000000	0.691792	0.670288	1090.412887
3894.000000	0.789364	0.834915	1053.489845
3895.000000	0.821794	0.777645	1424.555892
3896.000000	0.827528	0.952045	841.044922
3897.000000	1.049497	0.957264	1231.779475
3898.000000	1.194825	1.225038	1534.203120
3899.000000	1.322306	1.347700	776.948358
3900.000000	1.298239	1.363606	1666.999544
3901.000000	1.577695	1.605185	1724.317740
3902.000000	2.041218	1.727589	1080.699962
3903.000000	2.414324	2.323034	2203.623735
3904.000000	2.195070	2.148028	2184.317848
3905.000000	2.174657	2.013979	1851.009010
3906.000000	2.197866	2.155614	2793.243831
3907.000000	2.403877	2.297501	1960.184007
3908.000000	3.308480	3.372478	2191.283755
3909.000000	4.011386	3.965744	2632.008298
3910.000000	3.839250	4.312457	1639.947057
3911.000000	3.626715	3.417192	2202.302515
3912.000000	3.642449	3.320231	2280.528926
3913.000000	3.704138	3.579769	824.981037
3914.000000	3.570186	3.173963	2007.973330
3915.000000	2.668276	2.642868	1556.957849
3916.000000	2.947935	2.890662	972.862189
3917.000000	3.215854	3.527981	1894.991695
3918.000000	3.194247	3.245725	1379.784221
3919.000000	2.835667	2.828973	1349.694384
3920.000000	3.428571	4.114538	2187.720051
3921.000000	3.536082	3.629640	1320.714649
3922.000000	3.373497	3.752414	1722.532962
3923.000000	3.317272	3.351599	2046.608947
3924.000000	3.549328	3.589630	1038.608928
3925.000000	2.940944	2.772941	2209.172625
3926.000000	3.707873	3.476750	2076.765280
3927.000000	3.952989	3.938264	1329.686717
3928.000000	3.948496	3.636157	2470.328793
3929.000000	3.557224	3.631181	2087.036140
3930.000000	3.824080	3.565165	2093.214308
3931.000000	3.974326	3.728615	3317.423290
3932.000000	4.509316	4.398997	2497.813288
3933.000000	4.743838	4.764204	3396.323072
3934.000000	4.631155	4.960410	4207.357276
3935.000000	4.754677	4.675892	2187.349627
3936.000000	5.331078	5.611769	3983.904828
3937.000000	4.485231	4.204545	4914.023572
3938.000000	5.141441	4.875549	2114.044278
3939.000000	5.668779	5.536783	5050.481143
3940.000000	6.818202	6.621801	3803.870047
3941.000000	5.524264	5.498477	2568.308108
3942.000000	5.501254	5.789184	5148.403185
3943.000000	5.395679	5.289389	3200.440984
3944.000000	6.438686	7.672225	3030.886178
3945.000000	5.448997	5.471898	4051.973101
3946.000000	5.661542	5.795983	2147.067602
3947.000000	5.835839	6.345833	2884.105375
3948.000000	4.847298	5.368763	3131.183177
3949.000000	4.865510	5.364437	1451.442305
3950.000000	5.335439	5.670463	2894.924068
3951.000000	5.397698	5.567618	2963.781405
3952.000000	4.893766	4.430033	1690.074857


# Double the power
# Scan parameters: power 19.000000 dBm, bandwidth 1.500000 Hz
# Frequency [MHz]	avg noise	std noise	peak value
3850.000000	1.687110	1.761349	2462.021296
3851.000000	1.150975	1.275259	2974.960809
3852.000000	1.319053	1.188009	1655.799674
3853.000000	1.222942	1.347675	3491.081949
3854.000000	1.040258	1.045030	2920.979094
3855.000000	0.912216	0.877097	2573.158339
3856.000000	0.811638	0.686159	4313.066115
3857.000000	0.918619	0.939404	2910.662078
3858.000000	0.836219	0.820590	3639.828017
3859.000000	0.686831	0.715495	5126.611022
3860.000000	0.757807	0.788133	2820.659331
3861.000000	0.657962	0.740697	4903.646488
3862.000000	0.613054	0.547803	5635.120059
3863.000000	0.617028	0.632880	2779.199311
3864.000000	0.553024	0.500763	6341.431831
3865.000000	0.568382	0.553277	5650.002482
3866.000000	0.570634	0.520066	3961.332387
3867.000000	0.551751	0.574814	6793.653181
3868.000000	0.479288	0.512204	5024.818179
3869.000000	0.558968	0.786982	4756.350526
3870.000000	0.411121	0.448770	6888.497714
3871.000000	0.439542	0.477389	3696.590983
3872.000000	0.451262	0.484954	5002.372933
3873.000000	0.384864	0.402648	5745.352364
3874.000000	0.516038	0.448759	2379.006686
3875.000000	0.456984	0.433713	5082.303483
3876.000000	0.447739	0.456841	4851.196888
3877.000000	0.426962	0.415517	2884.475823
3878.000000	0.483816	0.408289	5418.241732
3879.000000	0.488211	0.436980	4078.472946
3880.000000	0.534724	0.591716	3458.177808
3881.000000	0.555259	0.538421	5025.092558
3882.000000	0.510509	0.651810	3231.614141
3883.000000	0.541778	0.560756	3818.524786
3884.000000	0.524813	0.530134	4473.899838
3885.000000	0.601532	0.648077	2456.190873
3886.000000	0.509603	0.464347	3745.765637
3887.000000	0.580385	0.682374	4297.788940
3888.000000	0.438120	0.489392	1954.340235
3889.000000	0.489359	0.494501	4381.338666
3890.000000	0.515768	0.506132	3710.986402
3891.000000	0.495369	0.510708	2364.941606
3892.000000	0.524401	0.486846	3707.657650
3893.000000	0.631830	0.627711	2493.929555
3894.000000	0.605296	0.624238	2167.305225
3895.000000	0.665806	0.707714	2968.322092
3896.000000	0.789660	0.809587	1712.388015
3897.000000	0.941723	0.930889	2412.127143
3898.000000	1.165950	1.161481	3138.607894
3899.000000	1.155856	1.189897	1506.798655
3900.000000	1.288736	1.155454	3273.517461
3901.000000	1.525600	1.353444	3813.351070
3902.000000	1.869109	1.861607	2284.398428
3903.000000	2.484667	2.404585	4701.571760
3904.000000	3.062989	3.097002	4167.970245
3905.000000	3.381479	3.394025	3532.272428
3906.000000	3.268751	3.167623	5381.926409
3907.000000	3.228179	3.035035	3683.890095
3908.000000	3.617683	3.461758	4537.224074
3909.000000	3.834214	3.586941	5632.158976
3910.000000	4.583261	4.519762	2860.345532
3911.000000	4.801630	4.081650	4750.882175
3912.000000	4.451962	4.410845	4556.375545
3913.000000	3.636429	3.508945	1876.016131
3914.000000	4.973974	4.752048	4084.916430
3915.000000	4.356950	5.298545	3391.360318
3916.000000	3.479256	3.565172	2343.985035
3917.000000	3.085031	2.912938	3855.536477
3918.000000	2.964349	3.370874	2853.273258
3919.000000	2.891498	3.019114	2789.498002
3920.000000	3.199676	2.848490	3888.383300
3921.000000	2.856336	2.673635	2511.687910
3922.000000	3.189282	2.968810	3453.825065
3923.000000	3.425335	3.604390	3989.383202
3924.000000	4.417265	4.294955	1858.975873
3925.000000	3.663510	3.698100	4397.337616
3926.000000	3.783025	3.536547	4187.897337
3927.000000	3.254504	3.616278	2554.446033
3928.000000	3.891232	3.719616	5259.403756
3929.000000	3.581571	3.733564	4201.979735
3930.000000	3.846733	3.827530	4221.066925
3931.000000	4.143100	4.255473	6410.193597
3932.000000	4.936167	4.853516	4345.405577
3933.000000	4.691793	4.850772	6545.519673
3934.000000	4.409748	3.995291	8473.245637
3935.000000	4.322239	4.887358	4892.099844
3936.000000	5.382141	4.809535	9325.978790
3937.000000	5.256738	5.154057	9643.660994
3938.000000	5.287482	5.140191	4308.905320
3939.000000	5.242286	5.256013	10034.487778
3940.000000	4.879156	4.772031	8823.222406
3941.000000	4.704104	4.474111	5898.100972
3942.000000	4.515220	4.586012	9517.601038
3943.000000	8.081005	7.378083	6469.098176
3944.000000	5.513733	5.163051	6058.863551
3945.000000	4.685178	5.501301	8021.036765
3946.000000	5.265324	4.781011	4389.937503
3947.000000	5.227701	5.043122	6597.691565
3948.000000	6.090946	5.759969	6707.485332
3949.000000	6.082040	6.393733	2974.001103
3950.000000	4.900004	4.695889	6405.690969
3951.000000	5.766975	5.039507	5750.878944
3952.000000	4.847114	4.639995	3502.046027
3953.000000	4.600806	4.747768	6383.808615
3954.000000	3.876074	3.994561	5263.953900
3955.000000	3.435677	3.102630	4271.801055
3956.000000	3.061099	2.746907	6541.924480
3957.000000	3.378413	3.204802	4162.470791
3958.000000	3.583589	3.852681	5041.548155
3959.000000	3.551934	3.874307	6439.542903
3960.000000	3.097780	3.114204	3762.318203
3961.000000	2.736575	2.349527	5439.012721
3962.000000	2.530857	2.558381	6253.349658
3963.000000	2.724031	2.527468	2899.069777
3964.000000	2.783339	2.813554	6759.135367
3965.000000	3.298126	3.618856	5836.437165
3966.000000	2.576336	2.351323	4527.202869
3967.000000	2.745167	2.562635	8245.687133
3968.000000	2.612150	3.115044	5703.937739
3969.000000	2.592585	2.821680	5627.817808
3970.000000	2.729409	2.645580	7781.739084
3971.000000	2.655445	2.691965	4382.174540
3972.000000	2.702073	2.555411	6059.847913
3973.000000	2.851933	3.370839	6722.904581
3974.000000	2.254007	2.160785	3003.199063
3975.000000	2.342350	2.509725	5740.854446
3976.000000	2.657716	2.662212	6066.537168
3977.000000	2.907590	2.842572	3348.409340
3978.000000	2.747314	2.648705	5945.355917
3979.000000	2.073665	2.078524	4723.820479
3980.000000	2.325258	2.214552	3809.089673
3981.000000	1.789994	1.697175	5925.724518
3982.000000	1.605178	1.588040	4089.714094
3983.000000	2.154508	2.384054	4697.011726
3984.000000	2.246844	2.306471	6351.238729
3985.000000	2.043050	2.055932	3338.702267
3986.000000	2.020743	2.204730	5244.392698
3987.000000	1.846632	1.818614	5789.277820
3988.000000	1.950488	1.975913	2646.124731
3989.000000	1.661193	1.815974	5626.284391
3990.000000	1.676827	1.676050	4862.933106
3991.000000	1.618991	1.486932	3158.094212
3992.000000	1.398089	1.461264	5950.249816
3993.000000	1.215984	1.133210	4320.584565
3994.000000	1.239119	1.255451	4378.470924
3995.000000	1.207560	1.178334	6151.080536
3996.000000	1.144906	1.143687	3634.677863
3997.000000	1.188328	1.307419	4692.812076
3998.000000	1.111353	1.041681	5478.234799
3999.000000	0.980244	0.951282	2227.914216
4000.000000	1.105154	1.224289	4736.366448
4001.000000	1.045174	1.192974	4119.528406
4002.000000	1.094562	1.174510	2214.409300
4003.000000	1.176805	1.164294	4028.743946
4004.000000	1.210528	1.186798	2842.187417
4005.000000	0.902599	1.020608	2194.678210
4006.000000	0.946828	0.935284	2807.642930
4007.000000	0.936303	0.884885	1593.984988
4008.000000	0.907051	0.889019	1557.399012
4009.000000	1.012929	1.014873	1659.312585
4010.000000	0.865253	0.825146	774.847257
4011.000000	1.178357	1.160223	1225.812380
4012.000000	1.066103	1.064585	1241.683759
4013.000000	0.959934	0.971236	512.132220
4014.000000	1.045599	1.033704	1206.699091
4015.000000	0.952221	0.855709	997.203177
4016.000000	0.815852	0.760628	570.273554
4017.000000	0.825343	0.792885	915.038652
4018.000000	0.737925	0.870966	589.750207
4019.000000	0.823237	0.710787	519.449815
4020.000000	0.731167	0.628366	621.962828
4021.000000	0.833058	0.798365	337.168392
4022.000000	0.719243	0.720990	492.345218
4023.000000	0.603174	0.550731	498.664016
4024.000000	0.701880	0.727803	223.158892
4025.000000	0.685863	0.687979	412.021635
4026.000000	0.643766	0.683815	406.317828
4027.000000	0.572219	0.494452	207.850455
4028.000000	0.542670	0.515749	431.281692
4029.000000	0.587569	0.693348	323.533905
4030.000000	0.506703	0.500313	223.866912
4031.000000	0.606352	0.556979	343.857441
4032.000000	0.713784	0.693907	162.785406
4033.000000	0.640925	0.639174	186.363955
4034.000000	0.600210	0.601354	189.457030
4035.000000	0.503999	0.526598	114.540068
4036.000000	0.583919	0.544578	131.099813
4037.000000	0.550290	0.601625	138.919588
4038.000000	0.635852	0.643790	79.394863
4039.000000	0.528454	0.506875	135.400774
4040.000000	0.563749	0.587722	106.133159
4041.000000	0.532769	0.488437	75.411567
4042.000000	0.650625	0.629638	123.427190
4043.000000	0.613443	0.633404	92.133034
4044.000000	0.567840	0.551586	97.756487
4045.000000	0.624998	0.633678	139.617436
4046.000000	0.607210	0.605819	84.153246
4047.000000	0.624171	0.625053	114.619721
4048.000000	0.795259	0.801227	176.796813
4049.000000	0.688069	0.730139	93.371798
4050.000000	0.799710	0.834411	268.722699
4051.000000	0.824772	0.804364	252.879105
4052.000000	0.735270	0.727445	214.174516
4053.000000	0.724164	0.681186	498.933800
4054.000000	0.826231	0.837934	569.136042
4055.000000	0.742413	0.768604	517.075537
4056.000000	0.826994	0.793378	1013.217800
4057.000000	0.793838	0.708510	799.921342
4058.000000	0.796271	0.897318	1117.212980
4059.000000	0.748533	0.719241	1392.373456
4060.000000	0.611491	0.598240	759.451617
