

# Pol in full trans
# Scan parameters: power 19.000000 dBm, bandwidth 1.500000 Hz
# Frequency [MHz]	avg noise	std noise	peak value
3850.000000	0.627174	0.561975	1758.368489
3851.000000	0.434153	0.418741	1892.067992
3852.000000	0.412050	0.437378	1103.719742
3853.000000	0.385737	0.405031	2168.822036
3854.000000	0.498507	0.499215	1990.238560
3855.000000	0.592473	0.587346	1611.429940
3856.000000	0.333038	0.363682	2865.182355
3857.000000	0.319007	0.330555	2140.714915
3858.000000	0.615241	0.593080	2566.296630
3859.000000	0.311824	0.347386	3692.664204
3860.000000	0.863328	0.596593	1994.399818
3861.000000	0.249958	0.286019	3487.968403
3862.000000	0.229198	0.235752	3625.557615
3863.000000	0.272846	0.400286	1830.929795
3864.000000	0.198452	0.185193	3820.467741
3865.000000	0.201618	0.223822	3098.543365
3866.000000	1.196883	0.768826	2245.723567
3867.000000	0.225649	0.232697	3708.543539
3868.000000	0.246374	0.255501	2606.800564
3869.000000	0.217687	0.299678	2689.663210
3870.000000	0.185536	0.179001	3877.859233
3871.000000	0.206463	0.246161	2157.021338
3872.000000	0.209858	0.292276	3031.690849
3873.000000	0.182677	0.174157	3656.921662
3874.000000	0.182243	0.190236	1589.685654
3875.000000	0.165240	0.190291	3497.345279
3876.000000	0.880764	0.546549	3311.722350
3877.000000	0.214787	0.301575	2003.499945
3878.000000	0.187589	0.240559	4068.297943
3879.000000	0.985686	0.641002	3488.282785
3880.000000	0.301427	0.384648	3101.891456
3881.000000	0.267281	0.324527	4702.294119
3882.000000	0.289095	0.281508	3271.098542
3883.000000	0.310595	0.288708	4065.333509
3884.000000	0.283758	0.317343	5305.566592
3885.000000	0.347657	0.504899	3113.325393
3886.000000	0.262882	0.302986	4907.305188
3887.000000	0.241211	0.275340	5764.401604
3888.000000	0.309273	0.296004	2741.454641
3889.000000	0.213560	0.231457	5882.456350
3890.000000	0.217744	0.315259	5392.555605
3891.000000	0.251438	0.362301	3499.860943
3892.000000	0.204321	0.206068	6493.674955
3893.000000	0.261553	0.310638	4459.178898
3894.000000	0.276215	0.362969	4423.415223
3895.000000	0.202774	0.220412	6288.130465
3896.000000	0.303400	0.411500	3572.935584
3897.000000	0.316856	0.411326	5150.468360
3898.000000	0.292608	0.275310	6020.270773
3899.000000	0.410998	0.491307	2738.128842
3900.000000	0.406783	0.433067	5555.223472
3901.000000	0.520873	0.532089	5268.010390
3902.000000	0.526163	0.637633	3005.969542
3903.000000	0.564887	0.662068	5245.591440
3904.000000	0.494775	0.581976	4199.717060
3905.000000	1.455467	1.247815	3630.476452
3906.000000	0.615143	0.667525	4960.466278
3907.000000	1.349855	1.200881	3114.360610
3908.000000	0.737563	0.676663	3820.598484
3909.000000	0.712965	0.840695	4510.118354
3910.000000	1.426561	1.237347	2410.167266
3911.000000	0.673114	0.751462	3720.082021
3912.000000	0.758529	0.743875	4065.406385
3913.000000	0.591948	0.643020	1932.668659
3914.000000	0.583006	0.619279	4022.797032
3915.000000	0.587339	0.607543	3733.767211
3916.000000	1.401037	1.354213	2576.077734
3917.000000	0.485405	0.439061	4514.188079
3918.000000	0.447804	0.455609	3253.003102
3919.000000	1.323112	1.111050	3162.498386
3920.000000	0.468225	0.470661	4689.754987
3921.000000	1.065512	1.003256	2338.644731
3922.000000	0.495555	0.475734	3464.119811
3923.000000	1.040160	0.892882	3853.732451
3924.000000	1.530546	1.355916	1627.245479
3925.000000	0.668606	0.735691	3252.544712
3926.000000	0.958170	0.857730	3008.086279
3927.000000	0.445227	0.551056	1881.062037
3928.000000	0.476823	0.496850	3598.401050
3929.000000	1.079256	0.909368	2995.432344
3930.000000	1.045495	1.081034	2240.094739
3931.000000	0.612899	0.680664	3240.911523
3932.000000	0.520811	0.528179	1895.252525
3933.000000	0.550164	0.528346	1887.564809
3934.000000	0.685769	0.728713	2265.078723
3935.000000	6.152657	3.265785	981.950510
3936.000000	1.309280	1.198484	1292.980800
3937.000000	1.204157	1.125445	1221.298950
3938.000000	0.641432	0.665878	482.195186
3939.000000	1.120344	0.923163	954.269249
3940.000000	0.527976	0.525171	876.596587
3941.000000	0.619665	0.609328	733.778789
3942.000000	0.583579	0.489450	1481.654095
3943.000000	0.590024	0.647313	1303.085306
3944.000000	0.779110	0.746119	1399.878211
3945.000000	1.314030	1.024600	2410.045362
3946.000000	0.576215	0.543807	1451.819968
3947.000000	1.347592	1.199786	2492.543171
3948.000000	1.233561	1.096258	3219.578021
3949.000000	0.570719	0.546070	1522.704206
3950.000000	0.540650	0.515810	3630.690196
3951.000000	0.776668	0.691530	4027.182062
3952.000000	0.639550	0.673668	2436.117380
3953.000000	0.499602	0.598321	4941.421562
3954.000000	0.423041	0.404991	4123.594497
3955.000000	0.541835	0.491527	3530.332274
3956.000000	1.014124	0.924919	4945.011849
3957.000000	0.535290	0.588442	3412.154791
3958.000000	0.448096	0.511897	3956.565466
3959.000000	1.225695	0.868731	4776.806600
3960.000000	0.410592	0.473617	2485.399628
3961.000000	0.332555	0.292294	4006.350375
3962.000000	0.384577	0.414261	4382.900132
3963.000000	0.437619	0.486656	2057.377136
3964.000000	1.084891	0.955200	4620.274543
3965.000000	1.105330	0.953024	4118.772685
3966.000000	0.443546	0.509091	2974.556338
3967.000000	0.305325	0.293993	5543.139415
3968.000000	0.392880	0.395362	4110.760834
3969.000000	0.290431	0.304266	4262.742317
3970.000000	0.318197	0.344795	6356.184970
3971.000000	0.291763	0.366447	3540.759435
3972.000000	0.774456	0.757445	5137.170486
3973.000000	0.286168	0.360280	6086.136128
3974.000000	0.296001	0.401898	2607.274317
3975.000000	0.335715	0.427963	5571.365854
3976.000000	0.273067	0.335867	5304.425413
3977.000000	0.256625	0.296937	2797.479074
3978.000000	0.219118	0.252323	5131.671570
3979.000000	0.276346	0.297979	3877.505962
3980.000000	0.277525	0.292682	3041.049850
3981.000000	0.276946	0.335527	4346.758502
3982.000000	0.261267	0.286067	2821.757807
3983.000000	0.865644	0.747547	3186.774899
3984.000000	0.265259	0.266673	4467.639945
3985.000000	0.347887	0.331152	2527.691281
3986.000000	0.238444	0.233588	4408.006813
3987.000000	0.301797	0.419035	5145.397157
3988.000000	0.337985	0.500797	2634.308270
3989.000000	0.282140	0.308500	6066.138577
3990.000000	0.292520	0.317892	5570.242890
3991.000000	0.427305	0.703878	4136.483387
3992.000000	0.350666	0.387660	7532.058289
3993.000000	0.322554	0.345038	5835.853894
3994.000000	0.352695	0.489248	6289.742493
3995.000000	0.282704	0.328236	9284.274459
3996.000000	0.753816	0.794107	5551.882947
3997.000000	0.379321	0.721484	8800.542539
3998.000000	0.295398	0.351765	10666.696568
3999.000000	1.218046	0.780982	4704.311238
4000.000000	0.332029	0.559418	10687.762783
4001.000000	0.257537	0.410473	10872.534427
4002.000000	0.374356	0.689343	6576.486677
4003.000000	0.338130	0.736298	12525.993976
4004.000000	0.316272	0.507600	10358.674698
4005.000000	0.400368	0.652069	8549.862014
4006.000000	0.276172	0.573820	12493.458403
4007.000000	0.377535	0.451795	7985.851836
4008.000000	0.341105	0.488776	8914.690138
4009.000000	0.321806	0.524908	10477.307272
4010.000000	0.340692	0.429782	5267.344386
4011.000000	0.298348	0.375179	7922.264215
4012.000000	0.335723	0.574853	8075.754209
4013.000000	0.852050	0.853461	3512.858954
4014.000000	0.290507	0.370080	7351.446378
4015.000000	0.364460	0.435091	6064.619065
4016.000000	0.388684	0.505584	3882.239680
4017.000000	0.717740	0.671733	7034.551680
4018.000000	0.352816	0.383956	4892.678497
4019.000000	0.377238	0.482606	4552.836580
4020.000000	0.332446	0.347926	6324.592627
4021.000000	0.364168	0.377395	3349.759592
4022.000000	0.334435	0.469570	4567.592789
4023.000000	0.337663	0.309144	4818.746541
4024.000000	0.382396	0.380732	2071.832707
4025.000000	0.395492	0.412976	4378.268091
4026.000000	0.452027	0.476426	4200.474398
4027.000000	0.390158	0.363794	2643.763274
4028.000000	0.312650	0.352308	5123.411082
4029.000000	0.377538	0.387985	4453.485157
4030.000000	0.429110	0.513296	3786.482239
4031.000000	0.374976	0.407154	6110.246427
4032.000000	0.485529	0.482608	3830.237445
4033.000000	0.465288	0.576855	4662.797400
4034.000000	0.944663	0.744764	5346.146685
4035.000000	0.493323	0.508289	2757.409183
4036.000000	0.406913	0.402506	4378.840588
4037.000000	1.177826	0.881572	4647.679197
4038.000000	0.419945	0.505926	2067.136416
4039.000000	0.420777	0.456607	4240.710509
4040.000000	0.433400	0.439877	3529.563951
4041.000000	0.499811	0.665895	2364.281484
4042.000000	0.425467	0.402883	3901.882003
4043.000000	0.498449	0.443058	2721.798904
4044.000000	0.390405	0.447150	2551.265505
4045.000000	0.427311	0.452729	3533.028805
4046.000000	0.424662	0.431581	1957.840139
4047.000000	0.365342	0.466835	2824.927056
4048.000000	0.393695	0.412652	3242.754992
4049.000000	0.516154	0.441163	1371.283849
4050.000000	0.453842	0.551025	2922.862847
4051.000000	0.536677	0.521218	2791.168005
4052.000000	0.453548	0.508764	1533.766253
4053.000000	0.454316	0.499906	2618.050872
4054.000000	0.524599	0.545879	1989.960565
4055.000000	0.617755	0.619304	1528.813269
4056.000000	0.521510	0.581569	2109.548255
4057.000000	0.448142	0.473389	1103.755945
4058.000000	0.549785	0.548913	1134.698183
4059.000000	0.547311	0.566146	1336.354577
4060.000000	0.513333	0.477955	553.817222
4061.000000	0.596670	0.652367	897.945935
4062.000000	0.520020	0.541174	785.912072
4063.000000	0.658415	0.627330	318.979480
4064.000000	0.619808	0.630831	600.231982
4065.000000	0.716016	0.874857	515.580558
4066.000000	0.760571	0.718492	329.351287
4067.000000	0.826864	0.821592	533.772177
4068.000000	0.768955	0.686218	314.421661
4069.000000	0.796117	0.775598	269.484123
4070.000000	1.056167	1.080614	387.676365
4071.000000	1.096707	1.068459	207.451580
4072.000000	1.121593	0.978298	435.694867
4073.000000	1.246572	1.244372	510.604008
4074.000000	1.202777	1.183507	227.038667
4075.000000	0.893209	0.766783	542.008034
4076.000000	1.091439	0.956080	482.894561
4077.000000	1.214242	1.139165	366.341639
4078.000000	1.439788	1.383330	587.158960
4079.000000	1.902986	1.731137	573.086671
4080.000000	1.855202	1.811896	500.133125
4081.000000	1.660738	1.544490	836.025444
4082.000000	1.856524	1.752677	608.629963
4083.000000	1.888522	2.000947	936.390713
4084.000000	2.076632	2.262204	1234.196966
4085.000000	2.054604	1.862697	667.671082
4086.000000	1.950547	2.007669	1141.202418
4087.000000	2.039173	1.926208	1181.703345
4088.000000	1.941444	2.045174	715.186032
4089.000000	2.531546	2.224444	1265.257097
4090.000000	2.770009	2.549785	1261.525737
4091.000000	2.606025	2.780212	882.445927
4092.000000	2.882393	2.565223	1583.311025
4093.000000	2.656368	2.618704	1138.913750
4094.000000	3.061053	3.061484	1394.994077
4095.000000	3.245183	3.538201	2554.268446
4096.000000	3.415062	2.976944	1652.268135
4097.000000	3.831347	3.660927	2429.740541
4098.000000	4.347637	4.134085	3039.803247
4099.000000	4.966719	4.583570	1320.005530
4100.000000	5.435640	5.820680	2961.440006
4101.000000	4.665140	4.370344	3051.949874
4102.000000	4.245091	4.571882	1906.841563
4103.000000	3.454215	3.139755	3281.617457
4104.000000	3.945570	4.118531	2588.934444
4105.000000	4.001241	3.700172	2296.306972
4106.000000	4.205062	4.486664	2900.355137
4107.000000	4.880810	4.798518	1721.949709
4108.000000	3.775982	3.969253	2281.996666
4109.000000	4.712252	4.627859	2557.371140
4110.000000	4.116069	4.027874	1492.525343
4111.000000	4.588848	4.215971	2090.239933
4112.000000	3.759956	4.076782	2635.238857
4113.000000	4.502805	4.350651	1189.388099
4114.000000	4.154261	4.135711	2516.465836
4115.000000	4.143446	4.325069	2182.593771
4116.000000	3.390324	3.284563	1521.009098
4117.000000	4.557939	4.549093	2619.267209
4118.000000	4.528846	4.294648	1912.171257
4119.000000	4.783258	4.338380	1602.444933
4120.000000	4.049936	4.051737	2345.100343
4121.000000	4.601980	4.619278	1139.029334
4122.000000	4.131135	4.623419	1613.234070
4123.000000	4.976967	5.780809	1973.232404
4124.000000	3.675781	3.755402	694.960030
4125.000000	3.812865	3.681292	1465.331821
4126.000000	3.428159	3.305717	1349.135236
4127.000000	3.174235	3.330292	673.562432
4128.000000	3.531203	3.457598	1324.100019
4129.000000	3.146403	3.265564	1158.854429
4130.000000	2.968266	3.137022	917.877766
4131.000000	3.232633	3.362909	1251.248303
4132.000000	2.560923	2.642320	671.086899
4133.000000	2.818312	3.082990	991.796041
4134.000000	2.360940	2.068025	1131.822764
4135.000000	2.280055	2.305564	593.057375
4136.000000	3.608772	3.532054	1023.714184
4137.000000	2.323741	2.306896	1403.619774
4138.000000	2.201993	2.034970	535.495223
4139.000000	2.340428	2.476590	1312.736247
4140.000000	1.921916	1.853824	1027.726283
4141.000000	1.886925	1.822867	885.802194
4142.000000	1.629428	1.476986	1314.098380
4143.000000	1.734643	1.635355	917.124037
4144.000000	1.483404	1.364535	837.163125
4145.000000	1.329948	1.422354	1071.384912
4146.000000	1.427803	1.393117	542.788934
4147.000000	1.177130	1.160938	686.967266
4148.000000	1.222015	1.284382	658.358808
4149.000000	1.013416	0.981564	278.076676
4150.000000	1.261731	1.244585	486.306164
4151.000000	1.075297	1.115498	416.872410
4152.000000	0.923993	0.940192	240.054863
4153.000000	0.905243	0.904323	391.239580
4154.000000	0.915685	0.878683	385.189633
4155.000000	0.905113	0.895704	317.575008
4156.000000	0.812699	0.764476	509.185141
4157.000000	0.851184	0.871834	271.352938
4158.000000	0.900727	0.894334	318.752640
4159.000000	0.869000	0.853310	366.526659
4160.000000	0.738333	0.736960	159.123575
4161.000000	0.761293	0.741064	282.853629
4162.000000	0.848020	0.829170	253.078201
4163.000000	0.827768	0.854835	100.239360
4164.000000	0.806707	0.849050	240.705507
4165.000000	0.650965	0.639539	155.954685
4166.000000	0.611603	0.606703	85.967339
4167.000000	0.607381	0.614734	167.837615
4168.000000	0.580255	0.583842	93.745076
4169.000000	0.567359	0.612818	78.980827
4170.000000	0.560692	0.576118	93.035890
4171.000000	0.433086	0.424945	47.518694
4172.000000	0.543609	0.544037	54.410418
4173.000000	0.525956	0.523935	45.887829
4174.000000	0.552221	0.516937	17.592072
4175.000000	0.592197	0.565799	31.904134
4176.000000	0.631505	0.686837	28.200639
4177.000000	0.498104	0.474735	19.035077
4178.000000	0.634435	0.587820	45.075849
4179.000000	0.614802	0.618317	51.714779
4180.000000	0.707735	0.682969	28.732707
4181.000000	0.704325	0.616845	72.698640
4182.000000	0.935738	0.976771	53.636934
4183.000000	1.010934	1.005506	82.857456
4184.000000	0.882141	0.857551	110.462611
4185.000000	1.095610	1.203596	41.973687
4186.000000	1.337165	1.340043	95.543261
4187.000000	1.557768	1.519412	91.240721
4188.000000	1.701175	1.834822	39.579998
4189.000000	1.896479	2.123241	98.521404
4190.000000	1.916159	1.869395	95.672798
4191.000000	2.586238	2.280997	86.287350
4192.000000	1.814518	2.046491	134.773713
4193.000000	1.406046	1.450684	136.770128
4194.000000	1.792288	1.725988	128.334808
4195.000000	2.040744	1.681352	243.468058
4196.000000	2.497494	2.463081	95.164557
4197.000000	2.750587	2.678178	113.548668
4198.000000	3.143488	3.162172	177.487630
4199.000000	3.183396	3.506158	71.761888
4200.000000	2.226890	2.075200	116.541532
4201.000000	1.774536	1.616339	134.819356
4202.000000	1.884314	1.742464	85.756197
4203.000000	2.086395	2.142438	133.813437
4204.000000	2.368673	2.162449	136.453504
4205.000000	2.666429	2.862364	105.427276
4206.000000	2.717837	2.645326	212.087244
4207.000000	2.708031	2.707148	105.511517
4208.000000	3.418656	3.142065	116.699932
4209.000000	2.152237	2.063341	213.274922
4210.000000	2.137463	2.189881	95.814188
4211.000000	2.521777	2.628644	168.300466
4212.000000	2.759486	2.625922	156.835268
4213.000000	2.410989	2.173780	67.645698
4214.000000	2.436042	2.241506	186.202463
4215.000000	2.041434	2.148094	148.379088
4216.000000	2.128847	1.945897	106.709569
4217.000000	2.393387	2.255211	161.126070
4218.000000	2.389078	2.481283	107.641001
4219.000000	2.403019	2.524090	87.652914
4220.000000	2.828818	2.757239	136.828114
4221.000000	3.551395	3.428077	95.182718
4222.000000	4.124388	4.661121	94.468328
4223.000000	3.297501	3.303696	143.560245
4224.000000	4.273915	4.245444	45.059526
4225.000000	2.471541	2.450920	162.008142
4226.000000	3.767493	3.580025	142.004395
4227.000000	2.067931	2.209821	122.315724
4228.000000	1.956371	1.835640	198.111932
4229.000000	2.005805	1.821286	171.514847
4230.000000	1.891958	1.883798	124.484716
4231.000000	2.331432	2.218111	230.330140
4232.000000	2.201035	2.011966	135.725173
4233.000000	2.049153	1.954803	188.976610
4234.000000	1.947223	1.908080	229.673240
4235.000000	2.144725	1.858005	109.439062
4236.000000	2.029014	1.969628	322.412203
4237.000000	2.260055	2.063085	182.759058
4238.000000	2.918593	2.311693	101.953973
4239.000000	2.198285	2.208967	142.354680
4240.000000	2.188198	2.130767	156.733989
4241.000000	1.588987	1.489802	67.280186
4242.000000	1.739359	1.950739	113.144143
4243.000000	1.422569	1.505974	90.302786
4244.000000	1.543661	1.606715	82.458702
4245.000000	1.372302	1.322728	128.275607
4246.000000	1.233297	1.343365	67.312510
4247.000000	1.342535	1.478183	121.115646
4248.000000	1.132398	1.118999	108.396736
4249.000000	0.986676	1.024516	36.658153
4250.000000	0.943887	0.933666	93.858920
4251.000000	1.006943	1.123322	121.544874
4252.000000	1.120099	1.230201	80.629298
4253.000000	1.136149	1.267630	109.572042
4254.000000	0.928446	0.909501	96.193040
4255.000000	0.926041	0.932210	114.052879
4256.000000	1.031162	1.016876	139.386682
4257.000000	0.943118	0.960380	82.339831
4258.000000	0.901441	0.940769	128.649334
4259.000000	0.849816	0.807045	164.745357
4260.000000	0.776863	0.749224	54.742769
4261.000000	0.643343	0.605047	111.586977
4262.000000	0.769875	0.798090	104.611367
4263.000000	0.728804	0.733055	71.471037
4264.000000	0.731201	0.778921	108.871549
4265.000000	0.854904	0.781604	118.802217
4266.000000	0.696484	0.722409	78.783784
4267.000000	0.813529	0.783580	103.178331
4268.000000	0.693344	0.668521	61.344385
4269.000000	1.306431	1.208398	68.431335
4270.000000	0.642939	0.658534	72.885800
4271.000000	0.552963	0.572044	40.867684
4272.000000	0.562268	0.527350	83.191229
4273.000000	0.633217	0.635999	101.185926
4274.000000	0.603159	0.588841	52.490363
4275.000000	0.536278	0.487170	118.683665
4276.000000	0.437683	0.403961	130.224949
4277.000000	0.442944	0.462583	85.221300
4278.000000	0.487736	0.480120	155.114629
4279.000000	0.453323	0.432687	134.544990
4280.000000	0.465330	0.496668	108.217555
4281.000000	0.479884	0.447761	131.706607
4282.000000	0.402688	0.410810	78.065327
4283.000000	0.354320	0.343081	89.301382
4284.000000	0.349490	0.341000	96.554010
4285.000000	0.327608	0.349367	46.224224
4286.000000	0.316570	0.334453	71.072983
4287.000000	0.300585	0.274925	74.011870
4288.000000	0.326689	0.346776	21.069121
4289.000000	0.267563	0.246824	55.385562
4290.000000	0.274191	0.233167	59.956753
4291.000000	0.274768	0.287136	44.432999
4292.000000	0.250768	0.244991	97.531020
4293.000000	0.213690	0.228980	90.400848
4294.000000	2.071591	0.979191	75.648747
4295.000000	0.181299	0.194932	174.888574
4296.000000	0.204222	0.210590	99.727145
4297.000000	0.249152	0.232058	193.823159
4298.000000	0.295454	0.301775	281.232324
4299.000000	0.322821	0.320387	129.308748
4300.000000	0.287492	0.289327	288.013849
4301.000000	0.281218	0.304115	319.977897
4302.000000	0.351028	0.343263	183.563647
4303.000000	0.286102	0.290834	380.939006
4304.000000	0.393352	0.381504	309.423291
4305.000000	0.363648	0.355793	321.963682
4306.000000	0.404820	0.402668	491.334659
4307.000000	0.403630	0.396889	307.336652
4308.000000	0.420488	0.334079	396.657625
4309.000000	0.453741	0.446587	496.503142
4310.000000	0.549459	0.500070	287.150927
4311.000000	0.521560	0.559084	507.620926
4312.000000	0.554289	0.654528	554.788589
4313.000000	0.692040	0.623851	272.004131
4314.000000	0.867901	0.926925	722.033172
4315.000000	0.920343	0.877985	557.782477
4316.000000	0.660795	0.723054	377.574601
4317.000000	0.540861	0.494670	279.603510
4318.000000	0.044724	0.046009	0.194800
4319.000000	0.039500	0.038473	0.196250
4320.000000	0.117785	0.098262	0.286687
4321.000000	0.043477	0.040098	0.221767
4322.000000	0.110234	0.101254	0.689902
4323.000000	0.042833	0.038531	0.182937
4324.000000	0.048219	0.045722	0.263448
4325.000000	0.045057	0.044022	0.165561
4326.000000	0.170390	0.123829	0.479547
