# Magnets are removed

# Scan parameters: power 16.000000 dBm, bandwidth 1.500000 Hz
# Frequency [MHz]	avg noise	std noise	peak value
3900.000000	2.284187	1.298463	5.589379
3901.000000	0.541161	0.562577	6.138750
3902.000000	0.658111	0.610039	6.924111
3903.000000	0.703460	0.688364	4.577328
3904.000000	1.009357	1.261200	3.434177
3905.000000	0.700943	0.669582	3.897066
3906.000000	0.785514	0.766133	3.840399
3907.000000	0.831965	0.833055	4.935471
3908.000000	1.008272	0.941442	5.198087
3909.000000	1.111275	1.069957	22.255446
3910.000000	1.065001	1.120252	19.370249
3911.000000	0.828518	0.897796	38.312779
3912.000000	0.816974	0.794641	69.187161
3913.000000	0.816512	0.855114	42.640009
3914.000000	0.993175	0.859464	66.895877
3915.000000	0.928216	0.905148	45.683915
3916.000000	1.026889	0.904695	78.654147
3917.000000	1.208128	1.247435	126.163286
3918.000000	1.006182	0.990771	104.442596
3919.000000	0.671124	0.612834	97.476851
3920.000000	0.855862	0.885447	131.292546
3921.000000	0.451723	0.404485	75.416746
3922.000000	0.647170	0.606154	144.357376
3923.000000	0.572217	0.609960	131.472471
3924.000000	0.779007	0.758839	65.545353
3925.000000	0.711177	0.682031	148.079492
3926.000000	0.553142	0.579807	134.678222
3927.000000	0.883329	0.904637	68.819322
3928.000000	0.890126	0.799264	126.802148
3929.000000	1.137394	1.036768	131.222269
3930.000000	0.759315	0.775880	92.118554
3931.000000	0.963179	1.035629	171.544370
3932.000000	0.577768	0.501918	107.526245
3933.000000	1.280317	1.164403	114.795277
3934.000000	0.697541	0.749736	139.436108
3935.000000	0.695424	0.735191	76.374589
3936.000000	0.609679	0.665055	100.747062
3937.000000	0.698207	0.677539	119.836405
3938.000000	0.995980	0.957999	39.840799
3939.000000	0.802239	0.830132	85.609689
3940.000000	0.421566	0.430116	94.800619
3941.000000	1.191693	1.265276	70.824115
3942.000000	0.575296	0.537201	123.694565
3943.000000	0.743674	0.740401	106.422491
3944.000000	0.775984	0.725867	129.246320
3945.000000	0.986998	0.976980	207.844669
3946.000000	0.849573	0.904535	129.982953
3947.000000	0.628530	0.647925	174.734910
3948.000000	0.985534	0.957230	233.008583
3949.000000	0.862692	0.850184	129.688108
3950.000000	1.045469	0.932063	283.921974
3951.000000	0.894329	0.880516	278.456575
3952.000000	0.783274	0.715785	173.300439
3953.000000	0.786604	0.849761	407.288550
3954.000000	0.863255	0.795489	275.233252
3955.000000	0.554283	0.554394	248.087666
3956.000000	0.770649	0.733942	428.711828
3957.000000	0.463679	0.445920	275.971246
3958.000000	0.579383	0.557945	332.051831
3959.000000	0.503909	0.519005	450.657972
3960.000000	0.524377	0.604461	266.584187
3961.000000	0.346010	0.311927	402.225985
3962.000000	0.343301	0.342378	419.098558
3963.000000	0.399220	0.405640	187.186770
3964.000000	0.446890	0.452710	356.943780
3965.000000	0.351328	0.345624	302.809624
3966.000000	0.315989	0.285664	200.913725
3967.000000	0.213207	0.194221	345.161599
3968.000000	0.206885	0.207665	270.738411
3969.000000	0.249203	0.227105	250.618313
3970.000000	0.175946	0.189584	402.507591
3971.000000	0.198041	0.210877	214.174202
3972.000000	0.173123	0.156139	354.164212
3973.000000	0.138437	0.138410	474.136967
3974.000000	0.183570	0.182037	220.483594
3975.000000	0.180431	0.176419	469.377235
3976.000000	0.152418	0.153773	499.898772
3977.000000	0.167360	0.182397	296.084180
3978.000000	0.124168	0.139207	590.682190
3979.000000	0.137013	0.136184	430.300477
3980.000000	0.114500	0.108085	376.506725
3981.000000	0.148119	0.146516	557.116570
3982.000000	0.111795	0.110517	368.224122
3983.000000	0.140159	0.139621	441.647088
3984.000000	0.161831	0.158978	632.486407
3985.000000	0.124953	0.138164	366.964779
3986.000000	0.128895	0.127812	679.077586
3987.000000	0.100119	0.104000	835.982854
3988.000000	0.109019	0.099703	394.907441
3989.000000	0.128136	0.129028	965.174611
3990.000000	0.106792	0.111627	911.200789
3991.000000	0.122522	0.115529	663.655348
3992.000000	0.165624	0.162265	1253.222562
3993.000000	0.104150	0.111488	913.692446
3994.000000	0.134952	0.143662	960.602683
3995.000000	0.102101	0.116242	1362.380751
3996.000000	0.140992	0.148711	793.286675
3997.000000	0.125862	0.134389	1178.059373
3998.000000	0.114300	0.115528	1361.655644
3999.000000	0.104074	0.112041	600.833048
4000.000000	0.117470	0.143562	1261.875660
4001.000000	0.121332	0.119885	1202.108291
4002.000000	0.113190	0.121104	695.557522
4003.000000	0.107987	0.111653	1296.860115
4004.000000	0.089180	0.080333	1060.457499
4005.000000	0.101407	0.094276	867.006871
4006.000000	0.135682	0.174091	1328.335446
4007.000000	0.101481	0.099059	816.277817
4008.000000	0.108461	0.124945	952.855192
4009.000000	0.090925	0.086714	1083.492371
4010.000000	0.130378	0.180097	533.567853
4011.000000	0.096399	0.094252	798.566604
4012.000000	0.091871	0.099453	781.764215
4013.000000	0.104924	0.106746	335.127845
4014.000000	0.089479	0.093267	665.191091
4015.000000	0.098248	0.107577	538.274986
4016.000000	0.095039	0.088383	334.362248
4017.000000	0.095238	0.099658	553.391533
4018.000000	0.090697	0.081274	380.274017
4019.000000	0.106758	0.099268	324.298627
4020.000000	0.094977	0.099267	455.565502
4021.000000	0.099137	0.096526	253.333051
4022.000000	0.103611	0.099890	359.788273
4023.000000	0.100483	0.105818	430.813886
4024.000000	0.094906	0.101257	200.886743
4025.000000	0.097941	0.087733	432.320332
4026.000000	0.093896	0.090484	445.198430
4027.000000	0.107956	0.107474	263.593839
4028.000000	0.112027	0.115191	474.740996
4029.000000	0.099788	0.099182	391.278425
4030.000000	0.101698	0.098871	315.518356
4031.000000	0.091640	0.081020	446.104520
4032.000000	0.107094	0.109292	278.069141
4033.000000	0.103776	0.097070	274.413531
4034.000000	0.090921	0.090653	295.802662
4035.000000	0.091726	0.097712	143.263554
4036.000000	0.118734	0.109034	182.945143
4037.000000	0.082261	0.070883	167.317482
4038.000000	0.113025	0.111257	73.527850
4039.000000	0.091418	0.094984	153.022604
4040.000000	0.102829	0.090483	153.764377
4041.000000	0.108619	0.091402	109.662605
4042.000000	0.100475	0.100333	215.576797
4043.000000	0.097387	0.094616	173.705225
4044.000000	0.098650	0.106106	193.233154
4045.000000	0.102005	0.105263	307.489246
4046.000000	0.112392	0.099460	199.081843
4047.000000	0.110847	0.106467	282.311804
4048.000000	0.105988	0.102226	343.045553
4049.000000	0.107010	0.098345	142.231783
4050.000000	0.102419	0.110969	313.289628
4051.000000	0.107077	0.100438	276.733201
4052.000000	0.101694	0.102042	133.230091
4053.000000	0.101982	0.109034	206.838413
4054.000000	0.103517	0.104906	142.603120
4055.000000	0.093635	0.091165	92.522952
4056.000000	0.107521	0.096438	91.735603
4057.000000	0.096008	0.104221	41.631962
4058.000000	0.114789	0.112872	33.791653
4059.000000	0.098470	0.091248	29.043755
4060.000000	0.108671	0.104182	13.410806
4061.000000	0.110854	0.106014	20.900001
4062.000000	0.114772	0.097603	25.503411
4063.000000	0.102399	0.112847	14.898592
4064.000000	0.121349	0.120975	41.808837
4065.000000	0.106441	0.105523	43.849961
4066.000000	0.127904	0.146487	35.772982
4067.000000	0.112037	0.106208	82.403265
4068.000000	0.107231	0.105515	63.847107
4069.000000	0.116103	0.106489	67.182102
4070.000000	0.106193	0.111734	107.245193
4071.000000	0.123284	0.124072	80.954409
4072.000000	0.121811	0.125726	119.562476
4073.000000	0.109368	0.109192	148.954030
4074.000000	0.115138	0.109928	72.940986
4075.000000	0.119611	0.116645	173.668057
4076.000000	0.130485	0.113865	195.078022
4077.000000	0.134156	0.124746	94.672602
4078.000000	0.117455	0.110090	243.475400
4079.000000	0.113759	0.112111	193.811579
4080.000000	0.123520	0.120407	173.883231
4081.000000	0.125656	0.121299	255.195821
4082.000000	0.132439	0.138994	174.550894
4083.000000	0.120752	0.119356	212.468490
4084.000000	0.126968	0.121551	289.415670
4085.000000	0.119772	0.118366	179.200488
4086.000000	0.135037	0.130762	319.079474
4087.000000	0.149389	0.140966	399.467163
4088.000000	0.139922	0.149146	197.484540
4089.000000	0.127318	0.121488	499.552467
4090.000000	0.146874	0.144586	482.659444
4091.000000	0.161205	0.173372	363.006890
4092.000000	0.130553	0.125107	666.113482
4093.000000	0.131035	0.134895	468.780708
4094.000000	0.137936	0.141549	433.121842
4095.000000	0.147318	0.148221	602.357215
4096.000000	0.156457	0.169524	326.267094
4097.000000	0.150369	0.173285	422.491733
4098.000000	0.148516	0.146882	485.370768
4099.000000	0.177184	0.172635	197.430494
4100.000000	0.183073	0.185386	372.209464
4101.000000	0.175804	0.175217	318.652759
4102.000000	0.181973	0.172093	173.953330
4103.000000	0.193632	0.197610	279.409747
4104.000000	0.163262	0.159405	204.587260
4105.000000	0.211010	0.234293	143.999396
4106.000000	0.207755	0.229753	215.604281
4107.000000	0.234095	0.227450	151.442740
4108.000000	0.241055	0.197255	157.030884
4109.000000	0.222195	0.220491	192.147166
4110.000000	0.276115	0.269187	97.622476
4111.000000	0.276667	0.268804	155.313054
4112.000000	0.214660	0.215589	178.615618
4113.000000	0.265590	0.271237	72.855657
4114.000000	0.276672	0.294196	182.538215
4115.000000	0.268180	0.328170	159.075792
4116.000000	0.403671	0.418292	111.141032
4117.000000	0.327664	0.310087	186.321064
4118.000000	0.405240	0.396971	136.250758
4119.000000	0.348603	0.330817	136.032971
4120.000000	0.453972	0.517510	196.538510
4121.000000	0.402661	0.465405	103.190936
4122.000000	0.492064	0.468787	144.175971
4123.000000	0.458380	0.416048	187.803458
4124.000000	0.566310	0.527465	72.829468
4125.000000	0.485422	0.432210	183.976525
4126.000000	0.508115	0.491986	201.035576
4127.000000	0.478375	0.509193	124.672288
4128.000000	0.446294	0.505006	190.045096
4129.000000	0.537320	0.470165	169.303256
4130.000000	0.484652	0.472609	133.931890
4131.000000	0.520474	0.541046	156.811702
4132.000000	0.497071	0.553024	130.319929
4133.000000	0.566780	0.518417	169.421921
4134.000000	0.627743	0.632311	205.202867
4135.000000	0.524690	0.554857	125.673628
4136.000000	0.567468	0.559712	207.537313
4137.000000	0.516551	0.483636	184.837238
4138.000000	0.501339	0.474226	104.750679
4139.000000	0.373427	0.384688	214.592146
4140.000000	0.248919	0.253052	204.976172
4141.000000	0.192870	0.194821	132.596146
4142.000000	0.181652	0.181766	251.749301
4143.000000	0.202123	0.187119	157.627780
4144.000000	0.168394	0.165388	155.247414
4145.000000	0.137163	0.130881	211.050175
4146.000000	0.124367	0.118531	112.871129
4147.000000	0.134579	0.136959	151.870057
4148.000000	0.118511	0.116756	172.543110
4149.000000	0.123819	0.120777	67.569028
4150.000000	0.119725	0.114436	138.096062
4151.000000	0.114965	0.129174	117.649150
4152.000000	0.107979	0.109091	62.550088
4153.000000	0.111576	0.102566	100.199869
4154.000000	0.087249	0.084181	78.185031
4155.000000	0.101374	0.106203	53.560109
4156.000000	0.100145	0.102762	89.631479
4157.000000	0.095004	0.085625	47.525557
4158.000000	0.106041	0.105809	60.611096
4159.000000	0.091340	0.096285	64.058749
4160.000000	0.096535	0.091027	30.220614
4161.000000	0.093472	0.086553	52.810667
4162.000000	0.099038	0.104923	55.406605
4163.000000	0.081672	0.078156	31.496217
4164.000000	0.095630	0.100559	85.877405
4165.000000	0.080346	0.084178	89.769138
4166.000000	0.082858	0.083950	68.408959
4167.000000	0.082804	0.086004	131.747582
4168.000000	0.086423	0.087469	104.834887
4169.000000	0.094133	0.088503	101.484162
4170.000000	0.087807	0.078621	143.808840
4171.000000	0.082989	0.080686	81.326937
4172.000000	0.086407	0.083622	112.330984
4173.000000	0.093347	0.107539	137.607604
4174.000000	0.081753	0.086651	63.717689
4175.000000	0.084332	0.084286	135.103884
4176.000000	0.073903	0.075030	127.357694
4177.000000	0.082856	0.087650	72.892396
4178.000000	0.083305	0.094420	126.972774
4179.000000	0.074486	0.070122	106.923344
4180.000000	0.075929	0.072938	98.864284
4181.000000	0.085608	0.078801	151.792878
4182.000000	0.093347	0.087375	108.003055
4183.000000	0.085472	0.087827	124.828982
4184.000000	0.088124	0.083562	153.868898
4185.000000	0.094782	0.090481	79.016308
4186.000000	0.080295	0.090853	139.795965
4187.000000	0.083262	0.077663	142.606299
4188.000000	0.087500	0.082108	63.323033
4189.000000	0.085789	0.076170	135.346623
4190.000000	0.085358	0.083405	125.501946
4191.000000	0.087919	0.091736	82.938680
4192.000000	0.091293	0.102814	147.185140
4193.000000	0.092096	0.085774	100.413567
4194.000000	0.094697	0.087578	92.410582
4195.000000	0.087878	0.082794	133.394786
4196.000000	0.098729	0.111106	77.109051
4197.000000	0.103511	0.110059	102.638389
4198.000000	0.086612	0.084869	125.777805
4199.000000	0.085320	0.084083	54.649631
4200.000000	0.096067	0.091900	101.848971
4201.000000	0.094249	0.088428	104.213882
4202.000000	0.114073	0.117164	64.126801
4203.000000	0.101743	0.102358	111.955444
4204.000000	0.100830	0.097805	82.935060
4205.000000	0.108545	0.097102	72.401326
4206.000000	0.099805	0.108749	101.152853
4207.000000	0.098112	0.098654	71.530484
4208.000000	0.104497	0.103724	95.457091
4209.000000	0.092275	0.096910	124.931586
4210.000000	0.107255	0.108187	68.708684
4211.000000	0.091677	0.094712	125.365957
4212.000000	0.108527	0.104496	126.083090
4213.000000	0.094793	0.085202	57.429732
4214.000000	0.079349	0.081767	139.829412
4215.000000	0.084075	0.082734	113.941637
4216.000000	0.090789	0.093043	76.564594
4217.000000	0.088045	0.080770	141.339172
4218.000000	0.102244	0.114218	104.972303
4219.000000	0.088741	0.084836	103.532145
4220.000000	0.091511	0.083768	175.229333
4221.000000	0.080459	0.070468	95.957975
4222.000000	0.082215	0.077904	157.497942
4223.000000	0.087082	0.077403	190.217055
4224.000000	0.081954	0.079227	81.027697
4225.000000	0.078731	0.069844	198.692285
4226.000000	0.078968	0.082473	191.051398
4227.000000	0.078374	0.074043	102.223127
4228.000000	0.083930	0.078257	210.597865
4229.000000	0.083123	0.076761	172.103168
4230.000000	0.077870	0.076375	132.199562
4231.000000	0.078285	0.079813	216.744481
4232.000000	0.073124	0.067920	149.860260
4233.000000	0.067795	0.071279	174.381153
4234.000000	0.078092	0.077359	232.451253
4235.000000	0.075664	0.074819	124.812693
4236.000000	0.080863	0.075911	209.749078
4237.000000	0.070736	0.067865	212.866522
4238.000000	0.070284	0.073971	101.572424
4239.000000	0.070264	0.067565	217.630072
4240.000000	0.082156	0.083205	186.851569
4241.000000	0.068992	0.062748	118.926603
4242.000000	0.071909	0.072506	219.578104
4243.000000	0.070511	0.080100	158.046627
4244.000000	0.068860	0.064036	143.454730
4245.000000	0.068654	0.064608	194.776801
4246.000000	0.065510	0.072285	114.786292
4247.000000	0.069211	0.064218	145.177277
4248.000000	0.063519	0.070989	160.741988
4249.000000	0.067579	0.067941	75.348872
4250.000000	0.060625	0.056795	147.874697
4251.000000	0.070465	0.066980	146.120750
4252.000000	0.066388	0.064055	83.284051
4253.000000	0.059636	0.059057	170.599481
4254.000000	0.063952	0.063732	137.366307
4255.000000	0.058892	0.053285	108.163136
4256.000000	0.070793	0.072485	159.490183
4257.000000	0.062140	0.066843	97.578806
4258.000000	0.062878	0.063452	116.739268
4259.000000	0.061662	0.057925	147.164146
4260.000000	0.068935	0.062330	81.158345
4261.000000	0.062210	0.061360	135.187041
4262.000000	0.060579	0.065293	154.241497
4263.000000	0.064222	0.059890	69.680918
4264.000000	0.063870	0.066931	147.829000
4265.000000	0.061476	0.061652	120.119824
4266.000000	0.072860	0.068407	81.250369
4267.000000	0.063225	0.059064	140.469610
4268.000000	0.061423	0.064206	112.478077
4269.000000	0.061501	0.066181	101.592529
4270.000000	0.060419	0.057910	151.454932
4271.000000	0.064402	0.071624	75.072274
4272.000000	0.065758	0.068252	112.024192
4273.000000	0.062599	0.065611	124.902947
4274.000000	0.059735	0.056122	54.667700
4275.000000	0.057149	0.061938	96.572098
4276.000000	0.060207	0.065203	86.361750
4277.000000	0.060086	0.060508	45.337388
4278.000000	0.060336	0.064162	68.865692
4279.000000	0.059079	0.060410	55.781787
4280.000000	0.060299	0.059997	39.740479
4281.000000	0.068338	0.065408	53.617738
4282.000000	0.064232	0.062019	27.238140
4283.000000	0.051106	0.048894	28.256387
4284.000000	0.060639	0.062594	26.390325
4285.000000	0.062578	0.066616	12.866271
4286.000000	0.061238	0.057761	17.826518
4287.000000	0.062307	0.058961	18.933342
4288.000000	0.060758	0.055803	7.483655
4289.000000	0.060885	0.061183	17.301729
4290.000000	0.057062	0.061730	13.187852
4291.000000	0.056164	0.049315	9.386813
4292.000000	0.056315	0.057799	18.029110
4293.000000	0.051049	0.050451	14.188155
4294.000000	0.054615	0.053614	12.813140
4295.000000	0.059390	0.055632	16.749638
4296.000000	0.056194	0.056393	8.809306
4297.000000	0.056471	0.055763	8.473919
4298.000000	0.058704	0.061612	12.971973
4299.000000	0.056552	0.057361	5.320845
4300.000000	0.049174	0.044699	9.190591
4301.000000	0.057003	0.053875	10.100905
4302.000000	0.056069	0.059746	6.929820
4303.000000	0.055868	0.055549	9.192861
4304.000000	0.066079	0.061010	6.057639
4305.000000	0.057322	0.060456	4.661470
4306.000000	0.054356	0.057857	7.358734
4307.000000	0.049512	0.046783	6.859837
4308.000000	0.057744	0.059532	6.984079
4309.000000	0.057263	0.054223	7.808456
4310.000000	0.052316	0.053012	5.718066
4311.000000	0.054400	0.053520	7.531050
4312.000000	0.060343	0.058966	10.639232
4313.000000	0.056886	0.056090	5.805218
4314.000000	0.053660	0.049328	14.449546
4315.000000	0.050192	0.052270	15.322085
4316.000000	0.054194	0.052983	12.140957
4317.000000	0.059248	0.059309	27.345200
4318.000000	0.059255	0.061900	24.914788
4319.000000	0.067193	0.062735	25.737468
4320.000000	0.064882	0.068550	40.147627
4321.000000	0.066147	0.066277	23.412248
4322.000000	0.071005	0.072765	38.028291
4323.000000	0.064099	0.064748	45.190860
4324.000000	0.059945	0.059895	26.065840
4325.000000	0.064517	0.065923	54.422393
4326.000000	0.058611	0.054572	65.282631
4327.000000	0.070304	0.072162	39.544076
4328.000000	0.070364	0.072022	76.952447
4329.000000	0.070712	0.074162	72.169736
4330.000000	0.060360	0.058283	56.944774
4331.000000	0.073523	0.075133	88.179822
4332.000000	0.084736	0.085047	59.875619
4333.000000	0.076594	0.073221	66.270352
4334.000000	0.075393	0.070160	79.652710
4335.000000	0.079310	0.073860	37.689484
4336.000000	0.090790	0.085571	61.392175
4337.000000	0.089842	0.091395	64.979190
4338.000000	0.085826	0.090960	26.721362
4339.000000	0.091456	0.091065	63.686776
4340.000000	0.090976	0.095665	48.265497
4341.000000	0.091519	0.088016	29.583200
4342.000000	0.081877	0.085227	54.643259
4343.000000	0.085837	0.089198	39.512041
4344.000000	0.095330	0.105179	34.945012
4345.000000	0.087864	0.086385	57.598155
4346.000000	0.088950	0.088355	34.379793
4347.000000	0.096631	0.112507	60.137374
4348.000000	0.088259	0.085401	64.548676
4349.000000	0.103614	0.102651	32.064875
4350.000000	0.098844	0.102515	78.898471
4351.000000	0.097364	0.090987	66.189418
4352.000000	0.103652	0.097441	36.914945
4353.000000	0.094774	0.086454	73.009031
4354.000000	0.085668	0.084788	55.609999
4355.000000	0.076913	0.083424	44.284199
4356.000000	0.084934	0.083909	63.957894
4357.000000	0.083397	0.078833	48.739912
4358.000000	0.103698	0.106934	50.184299
4359.000000	0.106222	0.101292	61.368409
4360.000000	0.088461	0.090395	34.490335
4361.000000	0.091609	0.090435	53.595666
4362.000000	0.091590	0.089899	56.997158
4363.000000	0.083756	0.081773	25.593595
4364.000000	0.097676	0.091759	57.513548
4365.000000	0.084905	0.096963	50.147065
4366.000000	0.078614	0.081832	34.194979
4367.000000	0.083722	0.086961	61.248604
4368.000000	0.070701	0.073406	41.576986
4369.000000	0.075176	0.075579	38.642306
4370.000000	0.076128	0.076415	53.053537
4371.000000	0.071075	0.063872	29.809632
4372.000000	0.065307	0.065090	43.300890
4373.000000	0.073103	0.067556	56.614699
4374.000000	0.065016	0.060136	21.870119
4375.000000	0.055827	0.060725	50.145593
4376.000000	0.053570	0.067385	52.321516
4377.000000	0.062251	0.056157	29.810058
4378.000000	0.068020	0.068579	56.522360
4379.000000	0.061790	0.058932	46.719051
4380.000000	0.058123	0.059647	35.438755
4381.000000	0.057748	0.052846	55.157182
4382.000000	0.057595	0.053786	38.592907
4383.000000	0.056942	0.059427	39.134969
4384.000000	0.062576	0.068042	57.331844
4385.000000	0.056019	0.057352	30.771964
4386.000000	0.064298	0.069179	45.490161
4387.000000	0.069857	0.073688	45.112472
4388.000000	0.062912	0.056950	20.494023
4389.000000	0.057731	0.060931	47.807511
4390.000000	0.069079	0.067182	43.677164
4391.000000	0.060951	0.060418	33.028136
4392.000000	0.063064	0.062406	50.331701
4393.000000	0.063903	0.059453	41.049418
4394.000000	0.058350	0.049984	37.410985
4395.000000	0.057354	0.055124	50.830250
4396.000000	0.058639	0.055991	26.324671
4397.000000	0.061271	0.059883	37.630220
4398.000000	0.057114	0.056501	41.662298
4399.000000	0.062489	0.063835	16.475578
4400.000000	0.063104	0.056922	33.220480
4401.000000	0.059978	0.057891	30.299341
4402.000000	0.059053	0.064449	16.867943
4403.000000	0.059687	0.066937	28.879676
4404.000000	0.060143	0.056948	21.323985
4405.000000	0.063724	0.061456	18.932447
4406.000000	0.062093	0.058085	23.295306
4407.000000	0.059612	0.051724	14.480836
4408.000000	0.053495	0.052086	15.255280
4409.000000	0.061598	0.061953	20.194664
4410.000000	0.058168	0.060333	10.191295
4411.000000	0.063425	0.058585	16.693727
4412.000000	0.071196	0.069089	18.549986
4413.000000	0.060127	0.062879	9.315307
4414.000000	0.058626	0.053613	19.876821
4415.000000	0.067104	0.062732	20.900074
4416.000000	0.062573	0.066475	13.875161
4417.000000	0.067131	0.064454	28.510978
4418.000000	0.064996	0.068997	24.982172
4419.000000	0.060480	0.054325	22.695027
4420.000000	0.069950	0.073618	28.061482
4421.000000	0.059849	0.068744	17.439613
4422.000000	0.057637	0.053298	25.015074
4423.000000	0.063526	0.061011	25.825963
4424.000000	0.065699	0.058997	11.540793
4425.000000	0.067759	0.067713	23.898272
4426.000000	0.076718	0.066754	20.594548
4427.000000	0.065721	0.074780	12.781082
4428.000000	0.062288	0.065754	23.659497
4429.000000	0.067661	0.066952	15.955273
4430.000000	0.061715	0.057585	16.172737
4431.000000	0.064996	0.061122	18.399664
4432.000000	0.071210	0.069336	12.006786
4433.000000	0.063784	0.059613	11.802670
4434.000000	0.072278	0.071155	14.871261
4435.000000	0.069591	0.069448	9.251522
4436.000000	0.069238	0.071953	13.797902
4437.000000	0.064378	0.059045	18.435853
4438.000000	0.075450	0.068388	10.816154
4439.000000	0.065724	0.069007	19.038161
4440.000000	0.069441	0.062570	19.359037
4441.000000	0.069968	0.062497	11.472803
4442.000000	0.073710	0.069363	20.589321
4443.000000	0.071613	0.077469	17.861621
4444.000000	0.066363	0.071248	13.799158
4445.000000	0.080800	0.079910	19.416869
4446.000000	0.068576	0.073406	10.760569
4447.000000	0.073585	0.071271	10.617112
4448.000000	0.068000	0.067611	13.894024
4449.000000	0.074039	0.077516	6.711508
4450.000000	0.078282	0.076651	11.985104
4451.000000	0.067009	0.061493	14.643425
4452.000000	0.068002	0.067810	7.102010
4453.000000	0.076345	0.074646	18.349810
4454.000000	0.073893	0.074289	13.649888
4455.000000	0.074873	0.072422	13.159235
4456.000000	0.071836	0.072344	19.381204
4457.000000	0.073457	0.066114	14.434027
4458.000000	0.076856	0.071429	17.825065
4459.000000	0.071720	0.071137	22.421570
4460.000000	0.072226	0.068552	13.666479
4461.000000	0.066435	0.066831	27.759722
4462.000000	0.070815	0.067036	33.050308
4463.000000	0.082001	0.085941	14.454778
4464.000000	0.066708	0.067299	39.515590
4465.000000	0.074994	0.080453	32.784244
4466.000000	0.072188	0.076193	23.030721
4467.000000	0.078036	0.082784	34.498546
4468.000000	0.076031	0.075381	29.273768
4469.000000	0.069580	0.073159	29.957957
4470.000000	0.077997	0.074116	35.078131
4471.000000	0.083628	0.076822	16.567222
4472.000000	0.077867	0.083125	28.756352
4473.000000	0.076701	0.083323	33.614212
4474.000000	0.074497	0.066756	13.066876
4475.000000	0.076394	0.066821	30.762751
4476.000000	0.078480	0.083452	38.698715
4477.000000	0.086709	0.083995	24.160841
4478.000000	0.086278	0.084609	47.306279
4479.000000	0.087427	0.090826	36.871248
4480.000000	0.085263	0.073736	31.587393
4481.000000	0.084965	0.086581	52.728539
4482.000000	0.080768	0.076071	37.957196
4483.000000	0.074617	0.077683	48.421725
4484.000000	0.083441	0.077835	71.551346
4485.000000	0.086804	0.071443	40.898769
4486.000000	0.100587	0.110755	64.359830
4487.000000	0.104354	0.098255	82.721710
4488.000000	0.109345	0.099950	34.872822
4489.000000	0.110970	0.112905	77.538539
4490.000000	0.110347	0.119897	65.638576
4491.000000	0.132275	0.128214	46.576715
4492.000000	0.135130	0.134206	84.945470
4493.000000	0.149197	0.135759	59.957256
4494.000000	0.192050	0.209395	66.361354
4495.000000	0.209882	0.195959	81.988440
4496.000000	0.236068	0.254697	61.393363
4497.000000	0.374466	0.381898	99.717430
4498.000000	0.394383	0.420212	146.915931
4499.000000	0.514057	0.536549	70.387078
4500.000000	0.355519	0.333930	162.663067
4501.000000	0.504974	0.448777	154.232089
4502.000000	0.575503	0.580406	108.979272
4503.000000	0.557549	0.617131	221.562542
4504.000000	0.527989	0.471129	175.783746
4505.000000	0.683779	0.669230	132.975823
4506.000000	0.569696	0.599175	253.110485
4507.000000	0.546654	0.566138	171.462049
4508.000000	0.545720	0.580199	185.867517
4509.000000	0.378756	0.364312	246.852065
4510.000000	0.363320	0.340597	114.948915
4511.000000	0.236872	0.211556	217.535994
4512.000000	0.211189	0.197522	227.175322
4513.000000	0.166826	0.169302	93.458600
4514.000000	0.166982	0.165522	205.608406
4515.000000	0.193694	0.199463	192.337439
4516.000000	0.172888	0.173375	133.485915
4517.000000	0.136762	0.132551	229.152567
4518.000000	0.147675	0.149116	166.435360
4519.000000	0.116007	0.116631	181.115109
4520.000000	0.101548	0.096614	278.781075
4521.000000	0.132947	0.126383	148.358182
4522.000000	0.108982	0.101275	238.179183
4523.000000	0.131097	0.125818	299.559105
4524.000000	0.098782	0.095631	136.377231
4525.000000	0.099197	0.088844	315.900631
4526.000000	0.085863	0.081863	292.454679
4527.000000	0.091166	0.080533	175.312706
4528.000000	0.094179	0.091231	304.314269
4529.000000	0.082945	0.079881	247.808915
4530.000000	0.079174	0.079125	185.773308
4531.000000	0.086482	0.092571	281.575195
4532.000000	0.077564	0.075808	178.075195
4533.000000	0.072091	0.073790	202.494391
4534.000000	0.079151	0.075713	261.027632
4535.000000	0.085574	0.082522	122.170936
4536.000000	0.087773	0.093730	185.306597
4537.000000	0.080808	0.078214	199.440789
4538.000000	0.071402	0.078640	91.239758
4539.000000	0.075252	0.069262	165.937810
4540.000000	0.089247	0.081486	123.122864
4541.000000	0.076453	0.075586	75.039178
4542.000000	0.072113	0.065460	121.555198
4543.000000	0.076196	0.073640	68.242542
4544.000000	0.077281	0.072443	58.831163
4545.000000	0.067238	0.069303	81.231972
4546.000000	0.082941	0.085241	41.782133
4547.000000	0.080458	0.078078	56.819457
4548.000000	0.075274	0.078202	63.479290
4549.000000	0.065864	0.070637	25.963972
4550.000000	0.071371	0.079185	57.914367
4551.000000	0.069655	0.068209	49.349743
4552.000000	0.076068	0.076976	34.335879
4553.000000	0.072147	0.074540	59.660747
4554.000000	0.070812	0.069389	52.533723
4555.000000	0.076838	0.081413	41.224410
4556.000000	0.067984	0.065703	69.389632
4557.000000	0.077202	0.070408	46.510194
4558.000000	0.066256	0.055034	46.326776
4559.000000	0.071237	0.070884	67.429984
4560.000000	0.064884	0.065753	38.629498
4561.000000	0.067274	0.060414	66.409611
4562.000000	0.071763	0.075642	78.370581
4563.000000	0.065275	0.062209	41.450388
4564.000000	0.068186	0.071047	96.272581
4565.000000	0.072507	0.070352	89.232839
4566.000000	0.067426	0.071690	56.208287
4567.000000	0.067333	0.066015	100.097109
4568.000000	0.066544	0.062806	74.814873
4569.000000	0.068290	0.068900	69.989567
4570.000000	0.071593	0.077356	84.189924
4571.000000	0.061694	0.063463	42.060316
4572.000000	0.064112	0.064549	50.180827
4573.000000	0.060183	0.059610	47.102898
4574.000000	0.069280	0.066993	16.966157
4575.000000	0.069681	0.070921	23.866197
4576.000000	0.065185	0.060852	15.716271
4577.000000	0.060400	0.068091	6.712835
4578.000000	0.059386	0.064942	6.834384
4579.000000	0.058217	0.060892	3.250095
4580.000000	0.057716	0.058677	1.812717
4581.000000	0.066035	0.076115	3.617471
4582.000000	0.067437	0.065587	2.208234
4583.000000	0.065449	0.064764	4.996770
4584.000000	0.066226	0.066380	8.696270
4585.000000	0.073254	0.072397	6.449976
4586.000000	0.059827	0.068504	11.708157
4587.000000	0.057379	0.055527	11.504705
4588.000000	0.062819	0.066873	8.539555
4589.000000	0.059245	0.065401	12.771136
4590.000000	0.060164	0.065708	8.667870
4591.000000	0.058327	0.057538	5.349632
4592.000000	0.060329	0.060466	5.705292
4593.000000	0.061148	0.059116	2.759864
4594.000000	0.066842	0.069198	2.051220
4595.000000	0.061055	0.060715	3.624693
4596.000000	0.058478	0.055815	1.504553
4597.000000	0.060664	0.068337	2.018907
4598.000000	0.066717	0.068640	2.578234
4599.000000	0.059521	0.058382	1.923922
4600.000000	0.057782	0.063635	2.772322
4601.000000	0.062218	0.063682	5.596871
4602.000000	0.068005	0.055603	4.531893
4603.000000	0.062364	0.068431	12.394784
4604.000000	0.064889	0.064529	11.101609
4605.000000	0.062910	0.061630	16.478168
4606.000000	0.064069	0.063791	32.037624
4607.000000	0.071028	0.065816	29.578144
4608.000000	0.062728	0.054893	39.058626
4609.000000	0.066063	0.068230	59.712181
4610.000000	0.067275	0.065629	36.259150
4611.000000	0.052905	0.056132	67.640584
4612.000000	0.061038	0.055192	70.189450
4613.000000	0.058395	0.065292	37.690998
4614.000000	0.063812	0.058451	84.289604
4615.000000	0.069177	0.064024	79.247348
4616.000000	0.066262	0.061339	52.269865
4617.000000	0.064213	0.061841	109.458282
4618.000000	0.068431	0.065838	82.023276
4619.000000	0.066704	0.074355	91.159752
4620.000000	0.056050	0.055580	141.007679
4621.000000	0.068287	0.070856	85.956412
4622.000000	0.061053	0.062584	134.540153
4623.000000	1.672923	0.485440	136.985468
4624.000000	0.059337	0.058116	84.208059
4625.000000	0.058354	0.055156	191.034217
4626.000000	0.065266	0.058344	199.992747
4627.000000	0.065148	0.066542	122.215662
4628.000000	0.063920	0.066982	223.079651
4629.000000	0.064181	0.062123	177.207810
4630.000000	0.064228	0.065275	146.711126
4631.000000	0.056561	0.056437	227.419911
4632.000000	0.065383	0.056537	157.102171
4633.000000	0.058400	0.063028	185.705161
4634.000000	0.057020	0.056324	241.128708
4635.000000	0.057402	0.057390	120.942982
4636.000000	0.067968	0.067116	194.253113
4637.000000	0.062097	0.065356	208.755150
4638.000000	0.065907	0.065426	100.080002
4639.000000	0.062024	0.057392	218.167971
4640.000000	0.064937	0.064764	183.337932
4641.000000	0.059124	0.054636	118.731738
4642.000000	0.061501	0.056590	204.278099
4643.000000	0.064008	0.067512	140.930163
4644.000000	0.060298	0.059637	142.238126
4645.000000	0.069706	0.072488	213.854855
4646.000000	0.060743	0.054488	123.377385
4647.000000	0.059972	0.066247	196.294699
4648.000000	0.065614	0.061583	237.173102
4649.000000	0.058666	0.060715	112.876416
4650.000000	0.060551	0.060273	253.508218
4651.000000	0.067243	0.069358	262.901906
4652.000000	0.059403	0.060176	150.107127
4653.000000	0.069807	0.071342	282.955403
4654.000000	0.063308	0.068140	227.379860
4655.000000	0.070939	0.067376	178.856650
4656.000000	0.069819	0.068210	264.769205
4657.000000	0.070500	0.062022	164.916034
4658.000000	0.064066	0.068107	179.800199
4659.000000	0.074886	0.076870	202.897839
4660.000000	0.069219	0.073158	107.331044
4661.000000	0.074420	0.067729	170.985022
4662.000000	0.067261	0.073245	186.860071
4663.000000	0.073944	0.066314	86.362766
4664.000000	0.065827	0.064059	184.018133
4665.000000	0.072202	0.071921	156.600957
4666.000000	0.077477	0.069885	106.032710
4667.000000	0.071445	0.070641	186.202473
4668.000000	0.070716	0.075589	127.416843
4669.000000	0.069145	0.062524	141.870165
4670.000000	0.073310	0.068736	219.346936
4671.000000	0.077236	0.074270	130.879718
4672.000000	0.071114	0.067944	184.081318
4673.000000	0.068158	0.069153	204.210091
4674.000000	0.077970	0.073037	91.658907
4675.000000	0.070343	0.085112	179.108073
4676.000000	0.067183	0.069046	176.664367
4677.000000	0.069937	0.083550	102.806206
4678.000000	0.073758	0.071266	197.126241
4679.000000	0.065743	0.065965	155.367702
4680.000000	0.073107	0.067060	128.753768
4681.000000	0.075534	0.068792	181.680706
4682.000000	0.080055	0.086511	123.051334
4683.000000	0.077320	0.075877	128.872069
4684.000000	0.072195	0.070044	166.474392
4685.000000	0.075770	0.072674	79.922759
4686.000000	0.066653	0.065969	133.606962
4687.000000	0.070126	0.065782	146.019949
4688.000000	0.082689	0.080863	66.845334
4689.000000	0.067793	0.066862	143.882325
4690.000000	0.071125	0.073116	124.673815
4691.000000	0.081349	0.076728	78.287400
4692.000000	0.077775	0.078327	131.666198
4693.000000	0.076260	0.071793	84.738197
4694.000000	0.076676	0.072184	92.745885
4695.000000	0.091284	0.084474	132.142130
4696.000000	0.076994	0.089042	82.654202
4697.000000	0.080490	0.073405	118.924109
4698.000000	0.085059	0.084480	138.887966
4699.000000	0.077001	0.069253	63.253001
4700.000000	0.081879	0.077355	132.571617
4701.000000	0.071281	0.076586	128.649753
4702.000000	0.078737	0.077059	74.625534
4703.000000	0.068744	0.070186	133.169250
4704.000000	0.081859	0.074710	103.108905
4705.000000	0.069413	0.072443	83.071201
4706.000000	0.075361	0.084475	115.503939
4707.000000	0.075749	0.075770	80.210960
4708.000000	0.069146	0.067356	86.211388
4709.000000	0.076351	0.076234	107.861945
4710.000000	0.069625	0.068152	54.308124
4711.000000	0.071530	0.070675	86.760337
4712.000000	0.071476	0.070162	93.230487
4713.000000	0.076971	0.070914	38.746463
4714.000000	0.077922	0.080367	88.672410
4715.000000	0.078653	0.078548	68.256532
4716.000000	0.075672	0.079376	47.284208
4717.000000	0.072623	0.074265	83.369070
4718.000000	0.069517	0.062706	57.920365
4719.000000	0.072598	0.064701	57.791545
4720.000000	0.071286	0.066289	91.108107
4721.000000	0.068845	0.063372	49.461843
4722.000000	0.079557	0.077761	65.882214
4723.000000	0.066176	0.063856	79.449820
4724.000000	0.075158	0.080285	40.560283
4725.000000	0.075318	0.073921	87.316000
4726.000000	0.074975	0.072228	85.216790
4727.000000	0.076857	0.076844	45.408455
4728.000000	0.075449	0.080775	90.035050
4729.000000	0.076130	0.067022	77.448851
4730.000000	0.081153	0.092093	68.293550
4731.000000	0.074918	0.066617	109.060332
4732.000000	0.081632	0.075952	72.795395
4733.000000	0.073398	0.070067	86.447973
4734.000000	0.071857	0.072628	124.059466
4735.000000	0.074038	0.082877	78.060372
4736.000000	0.073803	0.080835	134.745578
4737.000000	0.072872	0.072927	155.487985
4738.000000	0.072609	0.073326	81.822996
4739.000000	0.080794	0.071534	171.244973
4740.000000	0.076081	0.078050	163.959084
4741.000000	0.071908	0.072088	108.061407
4742.000000	0.077614	0.086838	187.741555
4743.000000	0.080124	0.079321	129.059191
4744.000000	0.079037	0.076659	126.100719
4745.000000	0.079293	0.076110	191.039362
4746.000000	0.070614	0.071940	103.814728
4747.000000	0.079152	0.083228	147.978826
4748.000000	0.077523	0.072629	174.707676
4749.000000	0.070183	0.060981	78.273364
4750.000000	0.078081	0.072863	150.178632
4751.000000	0.066653	0.064919	149.813190
4752.000000	0.078745	0.064547	84.509349
4753.000000	0.068945	0.065405	162.846085
4754.000000	0.070623	0.060265	123.886329
4755.000000	0.069054	0.070574	114.336971
4756.000000	0.083630	0.076253	175.901765
4757.000000	0.072828	0.077895	117.317351
4758.000000	0.072288	0.078383	139.171470
4759.000000	0.080605	0.084735	172.962110
4760.000000	0.072385	0.079140	96.065577
4761.000000	0.077198	0.083526	139.370529
4762.000000	0.078258	0.076656	153.511535
4763.000000	0.078409	0.092598	73.501346
4764.000000	0.069878	0.078552	171.603637
4765.000000	0.075757	0.086419	147.414426
4766.000000	0.072508	0.071951	98.616797
4767.000000	0.066999	0.067480	174.653241
4768.000000	0.079267	0.076063	117.431144
4769.000000	0.083608	0.079959	113.533981
4770.000000	0.070772	0.065030	163.698205
4771.000000	0.075094	0.070810	95.353309
4772.000000	0.072296	0.070750	131.822837
4773.000000	0.075784	0.083533	164.733146
4774.000000	0.074485	0.062771	78.651130
4775.000000	0.069414	0.070224	154.563776
4776.000000	0.071118	0.068101	164.077879
4777.000000	0.070726	0.067509	86.898277
4778.000000	0.077083	0.079988	171.781793
4779.000000	0.073419	0.078695	136.948060
4780.000000	0.075202	0.083294	109.528739
4781.000000	0.077293	0.070867	167.551532
4782.000000	0.075133	0.066520	97.024042
4783.000000	0.073625	0.065902	116.037760
4784.000000	0.070104	0.065821	135.782799
4785.000000	0.076080	0.074680	79.424806
4786.000000	0.066434	0.062512	124.210849
4787.000000	0.075052	0.077646	149.506148
4788.000000	0.075131	0.083737	68.398564
4789.000000	0.078683	0.079056	162.077511
4790.000000	0.075213	0.079123	137.822575
4791.000000	0.079958	0.075602	88.664975
4792.000000	0.076134	0.070353	141.247651
4793.000000	0.076415	0.076122	97.388163
4794.000000	0.079952	0.074538	92.678643
4795.000000	0.069202	0.068039	144.712480
4796.000000	0.082687	0.076300	87.204047
4797.000000	0.085927	0.085916	150.596319
4798.000000	0.072309	0.075106	192.787308
4799.000000	0.069472	0.062649	95.527193
4800.000000	0.081168	0.084133	220.709085
4801.000000	0.080117	0.067204	209.561985
4802.000000	0.072909	0.068783	131.631652
4803.000000	0.076460	0.079324	247.539056
4804.000000	0.084674	0.088084	205.823937
4805.000000	0.072679	0.064209	174.585562
4806.000000	0.088212	0.110021	263.931580
4807.000000	0.079654	0.074474	167.096593
4808.000000	0.084127	0.083415	188.064246
4809.000000	0.074954	0.078861	225.212328
4810.000000	0.070821	0.063700	118.031314
4811.000000	0.075381	0.078335	167.695821
4812.000000	0.071963	0.073507	183.821692
4813.000000	0.086194	0.092621	77.856404
4814.000000	0.074125	0.071567	177.237563
4815.000000	0.079165	0.080292	148.295622
4816.000000	0.082732	0.088318	98.350624
4817.000000	0.073705	0.071354	161.427711
4818.000000	0.079114	0.080429	113.395265
4819.000000	0.093128	0.089354	100.303404
4820.000000	0.083597	0.086822	141.820552
4821.000000	0.071917	0.086227	80.649731
4822.000000	0.076711	0.070983	114.863608
4823.000000	0.076080	0.073520	124.615594
4824.000000	0.081162	0.068666	57.151303
4825.000000	0.072356	0.075200	103.440895
4826.000000	0.077174	0.072030	93.103758
4827.000000	0.082559	0.078848	59.421895
4828.000000	0.083495	0.091970	99.407994
4829.000000	0.081403	0.079616	74.493370
4830.000000	0.091774	0.085766	66.123847
4831.000000	0.086449	0.089295	86.246305
4832.000000	0.087285	0.100252	49.532042
4833.000000	0.093427	0.087629	58.959102
4834.000000	0.082969	0.080116	69.380327
4835.000000	0.081551	0.080088	43.271076
4836.000000	0.082508	0.078613	60.543961
4837.000000	0.083561	0.082055	70.408066
4838.000000	0.091781	0.102590	39.561371
4839.000000	0.091967	0.101434	81.610104
4840.000000	0.083748	0.080003	73.383542
4841.000000	0.081975	0.088306	49.209916
4842.000000	0.078098	0.076102	88.926054
4843.000000	0.087700	0.086936	56.282256
4844.000000	0.089683	0.085111	58.137010
4845.000000	0.080285	0.078218	60.867623
4846.000000	0.082936	0.081989	31.778056
4847.000000	0.081720	0.077585	37.585373
4848.000000	0.079909	0.078254	36.569559
4849.000000	0.076718	0.069050	16.877512
4850.000000	0.071373	0.072837	32.434957
4851.000000	0.085472	0.081419	28.459723
4852.000000	0.089847	0.082758	16.553026
4853.000000	0.089326	0.087351	43.160323
4854.000000	0.084067	0.083340	35.028947
4855.000000	0.085957	0.084435	29.458937
4856.000000	0.072964	0.067516	37.051391
4857.000000	0.084480	0.097184	27.563787
4858.000000	0.071881	0.077103	31.745891
4859.000000	0.080653	0.080651	45.289386
4860.000000	0.071402	0.072053	33.771399
4861.000000	0.076996	0.089503	40.492986
4862.000000	0.074972	0.071127	54.800997
4863.000000	0.082773	0.070579	21.984720
4864.000000	0.084502	0.079160	47.716110
4865.000000	0.087409	0.085151	36.950106
4866.000000	0.073601	0.081053	21.615690
4867.000000	0.084802	0.079819	41.353928
4868.000000	0.080812	0.074324	30.242058
4869.000000	0.081472	0.078599	30.783388
4870.000000	0.077962	0.088091	44.842707
4871.000000	0.080534	0.081825	22.779090
4872.000000	0.069070	0.063116	27.128584
4873.000000	0.078402	0.069234	27.130737
4874.000000	0.093035	0.088580	13.379108
4875.000000	0.083297	0.084650	27.772997
4876.000000	0.074959	0.076810	25.179481
4877.000000	0.070687	0.074336	15.931789
4878.000000	0.073744	0.071292	27.141148
4879.000000	0.078268	0.074868	19.191428
4880.000000	0.083393	0.082414	19.931251
4881.000000	0.062384	0.053886	33.085017
4882.000000	0.075252	0.083332	23.657830
4883.000000	0.076707	0.077659	26.356084
4884.000000	0.078500	0.073181	35.742402
4885.000000	0.075787	0.078444	17.411062
4886.000000	0.068799	0.064557	30.447223
4887.000000	0.070637	0.071736	36.757257
4888.000000	0.068217	0.072525	16.371239
4889.000000	0.070700	0.064128	37.223430
4890.000000	0.067977	0.065629	36.732404
4891.000000	0.068547	0.065919	22.760517
4892.000000	0.073785	0.063038	50.216161
4893.000000	0.066877	0.073053	30.518138
4894.000000	0.063441	0.063800	33.706258
4895.000000	0.068350	0.066828	47.503948
4896.000000	0.061962	0.063234	26.634334
4897.000000	0.068104	0.065252	39.346991
4898.000000	0.065644	0.069106	46.127666
4899.000000	0.069789	0.067180	21.056015
4900.000000	0.068818	0.077130	48.796913
4901.000000	0.064064	0.065658	51.342033
4902.000000	0.069068	0.067312	25.930927
4903.000000	0.067499	0.064046	53.957659
4904.000000	0.079833	0.081126	38.277200
4905.000000	0.063356	0.057627	32.723944
4906.000000	0.067939	0.071811	49.331596
4907.000000	0.066431	0.070464	33.667968
4908.000000	0.071257	0.066921	41.383353
4909.000000	0.075890	0.069532	49.849422
4910.000000	0.067849	0.069427	27.812669
4911.000000	0.074230	0.070643	42.391282
4912.000000	0.063386	0.061213	46.286693
4913.000000	0.063925	0.058589	23.659673
4914.000000	0.070375	0.069640	47.293258
4915.000000	0.062404	0.060432	41.518986
4916.000000	0.067663	0.070926	29.173480
4917.000000	0.061155	0.060046	48.274828
4918.000000	0.066624	0.069296	34.454372
4919.000000	0.066588	0.061629	30.180450
4920.000000	0.060842	0.058956	46.941566
4921.000000	0.057081	0.055549	30.174297
4922.000000	0.061680	0.053463	44.540280
4923.000000	0.065897	0.063590	51.447416
4924.000000	0.072213	0.070872	24.937380
4925.000000	0.077186	0.080037	54.842024
4926.000000	0.062398	0.066745	65.416089
4927.000000	0.070711	0.072244	39.112159
4928.000000	0.078146	0.074871	83.579145
4929.000000	0.063712	0.064482	69.600454
4930.000000	0.061784	0.055159	54.630585
4931.000000	0.067818	0.065899	83.929178
4932.000000	0.067558	0.072537	57.928848
4933.000000	0.057005	0.060975	74.827321
4934.000000	0.071900	0.075764	99.460587
4935.000000	0.073003	0.063129	52.502929
4936.000000	0.068917	0.069958	71.545222
4937.000000	0.064708	0.067466	72.514489
4938.000000	0.069226	0.069263	30.282643
4939.000000	0.068860	0.064232	60.105272
4940.000000	0.059729	0.062047	54.032736
4941.000000	0.063773	0.060579	35.988070
4942.000000	0.063761	0.069644	54.352574
4943.000000	0.065780	0.063260	42.217076
4944.000000	0.071819	0.066914	37.881581
4945.000000	0.066435	0.061546	47.538758
4946.000000	0.075909	0.082312	33.272683
4947.000000	0.073797	0.079312	48.190794
4948.000000	0.070353	0.072682	59.073537
4949.000000	0.067279	0.067205	29.950761
4950.000000	0.067771	0.065666	65.616338
4951.000000	0.068823	0.066202	64.924590
4952.000000	0.072945	0.069150	34.994931
4953.000000	0.072353	0.069123	72.793194
4954.000000	0.069862	0.066316	58.542504
4955.000000	0.071468	0.067911	45.859725
4956.000000	0.077389	0.069312	79.773182
4957.000000	0.069122	0.063477	51.765729
4958.000000	0.079734	0.086112	55.712294
4959.000000	0.070487	0.068144	66.913681
4960.000000	0.067992	0.066041	27.512173
4961.000000	0.068022	0.068982	46.573730
4962.000000	0.066600	0.065509	45.955748
4963.000000	0.073496	0.069921	19.770028
4964.000000	0.068332	0.070518	48.158126
4965.000000	0.073292	0.066146	40.667863
4966.000000	0.073977	0.070743	23.621592
4967.000000	0.078650	0.070163	46.977982
4968.000000	0.072943	0.077431	33.690054
4969.000000	0.074857	0.065932	31.773797
4970.000000	0.080595	0.080519	54.447829
4971.000000	0.075344	0.086810	33.597748
4972.000000	0.072731	0.067675	45.392465
4973.000000	0.086841	0.087676	62.178998
4974.000000	0.081081	0.079516	28.040615
4975.000000	0.081697	0.086928	68.510837
4976.000000	0.080908	0.075461	65.219663
4977.000000	0.082086	0.074126	36.988341
4978.000000	0.082019	0.092364	86.452078
4979.000000	1.166804	0.475979	61.900028
4980.000000	0.077728	0.071041	58.341753
4981.000000	0.079249	0.073120	92.150738
4982.000000	0.070156	0.066546	54.279016
4983.000000	0.070640	0.080702	55.417739
4984.000000	0.071437	0.073390	62.298300
4985.000000	0.066528	0.060986	32.815783
4986.000000	0.080983	0.084397	38.661722
4987.000000	0.085828	0.091275	34.625853
4988.000000	0.079508	0.071766	13.478322
4989.000000	0.089128	0.086126	23.760906
4990.000000	0.069517	0.069411	19.462323
4991.000000	0.084009	0.087408	13.509087
4992.000000	0.081120	0.073585	22.131265
4993.000000	0.066975	0.070773	16.125649
4994.000000	0.081874	0.080259	14.940505
4995.000000	0.084564	0.080452	24.166657
4996.000000	0.084566	0.079343	11.828657
4997.000000	0.088121	0.083797	17.272654
4998.000000	0.076135	0.072075	21.773067
4999.000000	0.084972	0.084781	13.521350
5000.000000	0.081270	0.081478	31.572420
5001.000000	0.082776	0.078564	41.162790
5002.000000	0.084456	0.079496	23.153847
5003.000000	0.078234	0.077362	54.613983
5004.000000	0.070444	0.067820	46.324058
5005.000000	0.082893	0.075361	34.913313
5006.000000	0.081299	0.078177	73.765608
5007.000000	0.084157	0.087443	52.536500
5008.000000	0.089898	0.086414	61.530201
5009.000000	0.081631	0.092740	71.876661
5010.000000	0.080762	0.079515	41.687972
5011.000000	0.080450	0.082114	65.168395
5012.000000	0.094383	0.088104	74.030823
5013.000000	0.077227	0.075669	39.221103
5014.000000	0.078181	0.073856	83.593873
5015.000000	0.082475	0.080641	83.892652
5016.000000	0.078857	0.079412	55.153790
5017.000000	0.087364	0.087839	102.757650
5018.000000	0.078100	0.069301	77.174485
5019.000000	0.083139	0.084725	73.884904
5020.000000	0.081468	0.087920	111.507392
5021.000000	0.091225	0.086804	54.333773
5022.000000	0.093296	0.088344	81.048614
5023.000000	0.075945	0.074220	102.085972
5024.000000	0.088919	0.086442	47.271464
5025.000000	0.089712	0.093260	77.687067
5026.000000	0.089544	0.098646	81.032000
5027.000000	0.092622	0.091782	44.468422
5028.000000	0.081044	0.080788	92.875401
5029.000000	0.089539	0.098543	78.745169
5030.000000	0.081340	0.076386	56.435575
5031.000000	0.090120	0.092725	95.855382
5032.000000	0.089402	0.081825	78.559014
5033.000000	0.085840	0.081639	75.475333
5034.000000	0.085101	0.082241	96.753964
5035.000000	0.088139	0.089136	42.832655
5036.000000	0.085033	0.100405	64.482097
5037.000000	0.094973	0.104369	67.733480
5038.000000	0.085496	0.084029	30.554680
5039.000000	0.079970	0.072193	56.639181
5040.000000	0.087711	0.095803	51.765572
5041.000000	0.095433	0.090808	35.047494
5042.000000	0.083722	0.080225	54.238133
5043.000000	0.088250	0.082670	41.507786
5044.000000	0.084731	0.077994	29.750335
5045.000000	0.085245	0.090313	49.947884
5046.000000	0.088588	0.087459	28.833810
5047.000000	0.083099	0.083334	43.558992
5048.000000	0.086479	0.084953	55.060584
5049.000000	0.087274	0.088167	25.373053
5050.000000	0.074066	0.075843	52.085350
5051.000000	0.088650	0.089832	46.620894
5052.000000	0.088353	0.085311	22.902802
5053.000000	0.094075	0.094903	38.675077
5054.000000	0.088938	0.090582	24.965669
5055.000000	0.095280	0.089985	17.386516
5056.000000	0.089877	0.099713	30.148826
5057.000000	0.089353	0.091414	15.277738
5058.000000	0.094003	0.092574	15.570703
5059.000000	0.094768	0.093691	25.142516
5060.000000	0.091705	0.085468	13.796868
5061.000000	0.092039	0.090709	16.802847
5062.000000	0.078884	0.076474	20.534969
5063.000000	0.083089	0.070259	9.226494
5064.000000	0.086432	0.090204	16.766110
5065.000000	0.089724	0.094892	20.364164
5066.000000	0.093723	0.111167	12.753611
5067.000000	0.087299	0.088409	17.789333
5068.000000	0.102614	0.089631	11.809196
5069.000000	0.102510	0.107864	6.442761
5070.000000	0.087318	0.077488	10.656171
5071.000000	0.089222	0.084632	7.063841
5072.000000	0.083725	0.081386	9.997392
5073.000000	0.097642	0.103694	18.775372
5074.000000	0.094934	0.099629	12.679379
5075.000000	0.084866	0.083645	19.054694
5076.000000	0.083083	0.083411	24.227591
5077.000000	0.081997	0.084732	11.741949
5078.000000	0.095860	0.092864	19.022991
5079.000000	0.095976	0.097812	16.192938
5080.000000	0.093167	0.097868	13.563232
5081.000000	0.089245	0.082366	24.663631
5082.000000	0.090594	0.097300	16.894837
5083.000000	0.097302	0.087780	21.144113
5084.000000	0.098233	0.109914	28.339563
5085.000000	0.097092	0.086506	12.823629
5086.000000	0.104693	0.096512	21.469839
5087.000000	0.092474	0.091338	33.627533
5088.000000	0.090856	0.081554	13.953795
5089.000000	0.105934	0.109091	38.403364
5090.000000	0.098311	0.096298	31.655407
5091.000000	0.088600	0.084526	29.064089
5092.000000	0.091257	0.085148	55.695396
5093.000000	0.105486	0.112419	52.271750
5094.000000	0.105823	0.095796	56.641826
5095.000000	0.095856	0.093829	95.612608
5096.000000	0.092482	0.087168	51.224900
5097.000000	0.093132	0.089950	92.307610
5098.000000	0.099255	0.113177	106.963869
5099.000000	0.092758	0.093810	50.510194
5100.000000	0.085963	0.079585	99.587000
5101.000000	0.101992	0.096342	109.422549
5102.000000	0.093851	0.088034	63.534500
5103.000000	0.081038	0.074222	114.835281
5104.000000	0.103980	0.098931	97.231429
5105.000000	0.105946	0.103718	76.765607
5106.000000	0.100072	0.102676	138.327992
5107.000000	0.107669	0.128913	98.948324
5108.000000	0.106934	0.107793	94.067368
5109.000000	0.102337	0.104119	140.302063
5110.000000	0.101280	0.089472	65.298053
5111.000000	0.106147	0.102960	109.264167
5112.000000	0.093579	0.089782	126.556844
5113.000000	0.108357	0.120130	64.190118
5114.000000	0.102848	0.100278	139.491570
5115.000000	0.093933	0.096714	148.356058
5116.000000	0.098042	0.105244	105.684312
5117.000000	0.095008	0.082165	192.269927
5118.000000	0.111170	0.109977	159.901336
5119.000000	0.096834	0.106507	127.587091
5120.000000	0.092376	0.083350	216.248749
5121.000000	0.099361	0.100256	115.206130
5122.000000	0.100993	0.096491	156.558436
5123.000000	0.094700	0.089247	174.714111
5124.000000	0.108787	0.107636	88.767896
5125.000000	0.112488	0.107829	144.541324
5126.000000	0.101975	0.101353	157.565238
5127.000000	0.119398	0.110016	82.798024
5128.000000	0.112865	0.114135	174.783463
5129.000000	0.113408	0.122690	139.101001
5130.000000	0.108600	0.111036	107.744241
5131.000000	0.104439	0.085245	188.394933
5132.000000	0.107229	0.108972	125.254490
5133.000000	0.094657	0.091100	134.628714
5134.000000	0.095608	0.091760	181.013231
5135.000000	0.110324	0.112815	98.881419
5136.000000	0.117059	0.121626	166.717743
5137.000000	0.113294	0.109179	192.807506
5138.000000	0.107900	0.117007	102.371655
5139.000000	0.113270	0.112948	209.792522
5140.000000	0.110775	0.099735	189.794380
5141.000000	0.096724	0.096012	114.445647
5142.000000	0.104650	0.103520	207.187420
5143.000000	0.110004	0.107165	162.897442
5144.000000	0.110265	0.127568	134.799774
5145.000000	0.100965	0.103314	241.193841
5146.000000	0.113391	0.102492	113.541534
5147.000000	0.117440	0.110839	168.013741
5148.000000	0.116765	0.105810	198.214937
5149.000000	0.114304	0.106366	89.154159
5150.000000	0.116838	0.113610	137.851254
5151.000000	0.117329	0.104326	138.443591
5152.000000	0.126533	0.137067	68.040009
5153.000000	0.107085	0.102978	128.914932
5154.000000	0.105176	0.093241	106.363305
5155.000000	0.113602	0.109492	85.324118
5156.000000	0.109175	0.106895	131.282656
5157.000000	0.120252	0.119638	101.603867
5158.000000	0.113561	0.103374	101.890931
5159.000000	0.125364	0.128693	120.159666
5160.000000	0.109602	0.110447	64.258601
5161.000000	0.126154	0.115257	98.918784
5162.000000	0.106345	0.112209	108.632849
5163.000000	0.118082	0.126064	59.067752
5164.000000	0.102749	0.080890	118.159897
5165.000000	0.110611	0.122398	105.981479
5166.000000	0.135069	0.130091	70.910017
5167.000000	0.113462	0.116277	114.593641
5168.000000	0.121815	0.129320	79.770945
5169.000000	0.104901	0.099269	61.880479
5170.000000	0.107356	0.105265	84.070407
5171.000000	0.116496	0.120391	39.092084
5172.000000	0.126077	0.125277	51.907901
5173.000000	0.114359	0.117008	55.740689
5174.000000	0.118005	0.124414	21.223595
5175.000000	0.108649	0.107707	45.611095
5176.000000	0.109671	0.105606	34.555432
5177.000000	0.128174	0.119992	16.893872
5178.000000	0.119467	0.113635	26.045475
5179.000000	0.111767	0.123680	15.988459
5180.000000	0.107867	0.111942	7.984731
5181.000000	0.103435	0.099731	17.565580
5182.000000	0.101275	0.093858	14.335221
5183.000000	0.107801	0.096001	14.941406
5184.000000	0.105523	0.126341	18.348311
5185.000000	0.121834	0.120710	9.425194
5186.000000	0.100307	0.108968	13.723773
5187.000000	0.096446	0.098213	13.658397
5188.000000	0.095128	0.091811	7.189293
5189.000000	0.106662	0.099491	8.579276
5190.000000	0.110049	0.110732	9.646182
5191.000000	0.107662	0.101718	3.837263
5192.000000	0.107244	0.102778	6.197128
5193.000000	0.104901	0.098914	6.382543
5194.000000	0.116322	0.113330	5.708762
5195.000000	0.113419	0.108139	7.460658
5196.000000	0.107652	0.102917	3.260666
5197.000000	0.115522	0.123896	4.369717
5198.000000	0.102038	0.104727	3.401196
5199.000000	0.103002	0.092132	1.352156
5200.000000	0.103266	0.098308	1.579938
5201.000000	0.099711	0.105361	0.432346
5202.000000	0.095691	0.086441	0.512162
5203.000000	0.102792	0.100302	0.735707
5204.000000	0.122232	0.121922	0.769886
5205.000000	0.103085	0.102237	0.881631
5206.000000	0.115988	0.131481	1.276856
5207.000000	0.113027	0.115579	1.430634
5208.000000	0.108816	0.109669	2.644819
5209.000000	0.114400	0.097621	2.584778
5210.000000	0.107078	0.107344	1.716288
5211.000000	0.118439	0.119488	3.987675
5212.000000	0.125781	0.119424	3.294933
5213.000000	0.115484	0.111319	1.181144
5214.000000	0.111518	0.111786	1.737240
5215.000000	0.122205	0.132873	0.757277
5216.000000	0.114585	0.103143	1.661404
5217.000000	0.129868	0.126199	1.836592
5218.000000	0.127751	0.115060	2.525910
5219.000000	0.150392	0.149031	2.848714
5220.000000	0.133045	0.115372	5.324985
5221.000000	0.121337	0.130984	3.322446
5222.000000	0.119015	0.117258	10.594980
5223.000000	0.110429	0.095664	11.166093
5224.000000	0.114698	0.104859	5.484500
5225.000000	0.114915	0.107239	11.817299
5226.000000	0.100832	0.107323	14.312705
5227.000000	0.104673	0.109235	9.144627
5228.000000	0.107185	0.108942	21.293305
5229.000000	0.119218	0.114745	23.642981
5230.000000	0.111142	0.110184	18.828747
5231.000000	0.134459	0.130621	34.887577
5232.000000	0.104064	0.103553	31.154019
5233.000000	0.104362	0.113056	33.912744
5234.000000	0.115666	0.116321	36.165705
5235.000000	0.108419	0.098724	26.506761
5236.000000	0.116110	0.135091	30.888722
5237.000000	0.103983	0.119310	37.690650
5238.000000	0.108472	0.120770	16.789734
5239.000000	0.113484	0.124846	30.530875
5240.000000	0.108640	0.107748	20.067897
5241.000000	0.117173	0.123358	14.478056
5242.000000	0.122169	0.129417	24.967635
5243.000000	0.099288	0.090569	19.460456
5244.000000	0.108633	0.115927	21.712451
5245.000000	0.107613	0.104867	28.047677
5246.000000	0.124008	0.127517	17.433232
5247.000000	0.106448	0.104524	22.740311
5248.000000	0.117643	0.117537	26.134320
5249.000000	0.117425	0.103975	13.612827
5250.000000	0.113576	0.119086	26.072066
5251.000000	0.106350	0.101313	30.621464
5252.000000	0.113853	0.108251	15.374401
5253.000000	0.125819	0.116851	28.212057
5254.000000	0.108296	0.112448	30.302907
5255.000000	0.111081	0.107474	17.914146
5256.000000	0.103509	0.094461	43.787516
5257.000000	0.106778	0.095224	28.030026
5258.000000	0.100913	0.102100	25.132292
5259.000000	0.122188	0.114696	34.688192
5260.000000	0.115968	0.107827	18.710196
5261.000000	0.111457	0.105077	31.947339
5262.000000	0.092700	0.089255	26.014506
5263.000000	0.109716	0.111071	15.762166
5264.000000	0.102637	0.100846	33.816125
5265.000000	0.105453	0.099466	26.971312
5266.000000	0.114045	0.113239	19.964275
5267.000000	0.108181	0.102420	33.983240
5268.000000	0.113867	0.109138	29.875741
5269.000000	0.112363	0.102633	19.830259
5270.000000	0.087813	0.085866	28.138772
5271.000000	0.101721	0.101239	18.580340
5272.000000	0.128465	0.118858	19.337167
5273.000000	0.123739	0.121582	16.094168
5274.000000	0.106434	0.106589	7.686513
5275.000000	0.109833	0.117269	8.169034
5276.000000	0.105511	0.094539	5.171167
5277.000000	0.115305	0.111332	2.180687
5278.000000	0.108840	0.105564	3.146706
5279.000000	0.115652	0.114793	2.993848
5280.000000	0.116800	0.114126	4.620555
5281.000000	0.115097	0.115114	13.930207
5282.000000	0.102892	0.096261	12.057267
5283.000000	0.104339	0.097931	15.374408
5284.000000	0.099395	0.111726	24.525101
5285.000000	0.103995	0.105457	11.827217
5286.000000	0.116068	0.118495	16.615360
5287.000000	0.100257	0.093633	15.494008
5288.000000	0.106514	0.119578	6.298176
5289.000000	0.104957	0.101765	17.023448
5290.000000	0.102597	0.103413	19.299480
5291.000000	0.103757	0.084651	12.556328
5292.000000	0.098919	0.099820	27.167582
5293.000000	0.110270	0.103116	17.634371
5294.000000	0.107322	0.129364	13.155801
5295.000000	0.094858	0.101006	19.108135
5296.000000	0.092874	0.088865	10.974358
5297.000000	0.104228	0.093291	10.618645
5298.000000	0.095766	0.098240	13.415630
5299.000000	0.104972	0.106687	6.620435
5300.000000	0.110375	0.111989	16.896551
5301.000000	0.090404	0.088956	23.480345
5302.000000	0.089806	0.094259	13.309444
5303.000000	0.102469	0.090278	22.834949
5304.000000	0.099275	0.100987	17.267517
5305.000000	0.099990	0.119929	12.379639
5306.000000	0.101488	0.100810	15.076508
5307.000000	0.096010	0.092639	8.349790
5308.000000	0.084725	0.081218	8.521322
5309.000000	0.087462	0.089154	8.432656
5310.000000	0.091755	0.087970	4.423503
5311.000000	0.089054	0.088400	8.528330
5312.000000	0.088595	0.088136	11.615483
5313.000000	0.097149	0.110226	4.357034
5314.000000	0.085278	0.080617	6.584500
5315.000000	0.098379	0.091523	11.021630
5316.000000	0.082747	0.081907	7.164577
5317.000000	0.094500	0.092406	11.995398
5318.000000	0.089400	0.089289	8.483007
5319.000000	0.079518	0.080843	8.299506
5320.000000	0.086819	0.072614	17.925173
5321.000000	0.094392	0.092010	11.694218
5322.000000	0.086465	0.081857	14.390845
5323.000000	0.097413	0.088603	18.733800
5324.000000	0.086675	0.083442	13.090972
5325.000000	0.083811	0.076707	20.859671
5326.000000	0.083545	0.076379	26.492086
5327.000000	0.081992	0.079890	11.869198
5328.000000	0.077579	0.078808	19.336461
5329.000000	0.089307	0.097742	12.307294
5330.000000	0.077038	0.075590	11.835549
5331.000000	0.089103	0.096283	18.587505
5332.000000	0.084664	0.086320	11.376702
5333.000000	0.083119	0.084551	17.817795
5334.000000	0.082789	0.072763	25.179186
5335.000000	0.086093	0.087910	14.659356
5336.000000	0.086863	0.079126	26.148655
5337.000000	0.081970	0.077572	32.442177
5338.000000	0.081882	0.079903	16.243186
5339.000000	0.085220	0.089287	40.018516
5340.000000	0.070179	0.070100	31.595992
5341.000000	0.068991	0.064200	31.594854
5342.000000	0.074899	0.071371	61.504063
5343.000000	0.084974	0.076562	51.579313
5344.000000	0.076949	0.077357	46.685513
5345.000000	0.081023	0.082237	77.859998
5346.000000	0.080597	0.071932	40.812031
5347.000000	0.075840	0.086687	67.035760
5348.000000	0.067132	0.061319	69.705773
5349.000000	0.069576	0.061711	33.696275
5350.000000	0.076645	0.085446	50.651734
5351.000000	0.086174	0.079638	53.261875
5352.000000	0.072630	0.063538	30.133789
5353.000000	0.086650	0.082713	60.342382
5354.000000	0.075674	0.071208	49.653934
5355.000000	0.076610	0.086765	31.446911
5356.000000	0.074476	0.075241	53.025876
5357.000000	0.076491	0.071284	28.965751
5358.000000	0.078780	0.080348	32.525550
5359.000000	0.082180	0.089497	33.316707
5360.000000	0.077964	0.080431	16.187766
5361.000000	0.077924	0.073903	28.816413
5362.000000	0.070665	0.069724	33.732756
5363.000000	0.074562	0.074138	15.978349
5364.000000	0.090285	0.083405	24.348793
5365.000000	0.077357	0.086512	26.276613
5366.000000	0.074358	0.067350	16.553851
5367.000000	0.071385	0.072956	27.483981
5368.000000	0.076177	0.073812	20.872048
5369.000000	0.075758	0.076372	15.480523
5370.000000	0.074785	0.070596	28.258124
5371.000000	0.088653	0.095638	20.554385
5372.000000	0.074378	0.077632	24.760157
5373.000000	0.073055	0.084570	32.102417
5374.000000	0.082269	0.083422	17.658662
5375.000000	0.089142	0.085576	23.224211
5376.000000	0.075495	0.077143	25.954605
5377.000000	0.081807	0.088822	15.431251
5378.000000	0.083977	0.086179	30.775636
5379.000000	0.079517	0.076006	27.371123
5380.000000	0.080885	0.088596	20.128854
5381.000000	0.074306	0.072303	34.863753
5382.000000	0.078176	0.065638	21.992000
5383.000000	0.076584	0.074904	23.594598
5384.000000	0.078772	0.082300	31.903775
5385.000000	0.084120	0.078365	14.123793
5386.000000	0.079725	0.082382	23.302028
5387.000000	0.086294	0.089818	23.068224
5388.000000	0.073759	0.079767	10.241740
5389.000000	0.080770	0.094382	20.336863
5390.000000	0.079085	0.076845	21.833817
5391.000000	0.075512	0.079273	15.243955
5392.000000	0.069418	0.081678	27.040211
5393.000000	0.077826	0.081830	21.165599
5394.000000	0.076766	0.075104	20.533865
5395.000000	0.084020	0.082993	31.232206
5396.000000	0.077829	0.081161	16.295799
5397.000000	0.084187	0.080812	27.468112
5398.000000	0.077976	0.078231	30.190047
5399.000000	0.081641	0.086429	12.509439
5400.000000	0.076447	0.074687	18.689640
5401.000000	0.084876	0.077064	19.304435
5402.000000	2.234237	0.564160	17.268753
5403.000000	0.065903	0.075216	18.392377
5404.000000	0.082117	0.077709	14.020333
5405.000000	0.077127	0.072274	12.178557
5406.000000	0.070656	0.074270	16.014667
5407.000000	0.082497	0.076147	12.393667
5408.000000	0.075788	0.086975	12.748870
5409.000000	0.077562	0.074684	15.459507
5410.000000	0.072189	0.073803	6.446007
5411.000000	0.079225	0.078581	9.612926
5412.000000	0.077465	0.070019	10.581416
5413.000000	0.071240	0.067836	4.224837
5414.000000	0.074399	0.073990	9.078645
5415.000000	0.069091	0.072658	7.855372
5416.000000	0.079430	0.072354	4.433494
5417.000000	0.074658	0.072653	10.359491
5418.000000	0.074795	0.076772	6.797011
5419.000000	0.070910	0.091544	7.181190
5420.000000	0.080498	0.074239	13.167389
5421.000000	0.073904	0.075554	8.151352
5422.000000	0.072590	0.072803	11.802088
5423.000000	0.080614	0.077473	15.093359
5424.000000	0.079408	0.072012	7.989328
5425.000000	0.078802	0.079853	14.125762
5426.000000	0.076667	0.082723	15.181237
5427.000000	0.077434	0.081018	7.150972
5428.000000	0.085878	0.083436	13.472643
5429.000000	0.074506	0.075915	12.263452
5430.000000	0.070307	0.068215	11.703623
5431.000000	0.078183	0.078799	16.838219
5432.000000	0.071995	0.066624	15.803545
5433.000000	0.081370	0.078956	15.523932
5434.000000	0.076300	0.065973	14.143371
5435.000000	0.074228	0.074208	6.302422
5436.000000	0.080347	0.084295	8.138414
5437.000000	0.090335	0.086785	6.946370
5438.000000	0.071506	0.073796	5.301314
5439.000000	0.072415	0.070220	7.488376
5440.000000	0.077995	0.068765	7.045981
5441.000000	0.075322	0.069577	5.591785
5442.000000	0.068384	0.071336	10.287555
5443.000000	0.079005	0.074043	7.225663
5444.000000	0.096717	0.103905	6.719484
5445.000000	0.075196	0.067450	9.326367
5446.000000	0.074072	0.076732	7.446663
5447.000000	0.069829	0.063711	9.836209
5448.000000	0.079255	0.074595	10.393038
5449.000000	0.073232	0.071836	3.711765
5450.000000	0.069877	0.073354	7.303063
5451.000000	0.075101	0.073680	8.651859
5452.000000	0.073027	0.077231	4.777416
5453.000000	0.075175	0.069789	6.409445
5454.000000	0.077685	0.077454	5.478428
5455.000000	0.071884	0.073148	2.892802
5456.000000	0.078204	0.073288	3.596358
5457.000000	0.089186	0.082055	2.429854
5458.000000	0.075718	0.080043	1.628225
5459.000000	0.071144	0.066663	1.779805
5460.000000	0.070935	0.072452	0.709965
5461.000000	0.087864	0.081022	1.081417
5462.000000	0.066872	0.060617	0.246020
5463.000000	0.071491	0.071966	0.379137
5464.000000	0.074097	0.080240	0.444224
5465.000000	0.064511	0.064152	1.180719
5466.000000	0.068216	0.067053	0.430819
5467.000000	0.072517	0.067178	0.695026
5468.000000	0.075057	0.076142	1.545006
5469.000000	0.062129	0.068326	0.766359
5470.000000	0.066706	0.067223	1.838065
5471.000000	0.058557	0.054526	1.596587
5472.000000	0.071303	0.067332	1.523099
5473.000000	0.061798	0.064552	1.797485
5474.000000	0.066453	0.068541	0.673885
5475.000000	0.067224	0.059091	0.646510
5476.000000	0.071467	0.069308	0.834178
5477.000000	0.065627	0.066869	0.940903
5478.000000	0.070356	0.060529	0.798241
5479.000000	0.063606	0.065449	1.285741
5480.000000	0.064670	0.068408	0.351238
5481.000000	0.062349	0.056852	0.370795
5482.000000	0.068214	0.070320	0.400616
5483.000000	0.065740	0.061754	0.858020
5484.000000	0.060692	0.061817	0.561147
5485.000000	0.066530	0.071945	0.581443
5486.000000	0.058821	0.063012	0.451594
5487.000000	0.069061	0.063672	0.310170
5488.000000	0.063284	0.058833	0.396808
5489.000000	0.075573	0.073670	0.192223
5490.000000	0.064686	0.068595	0.233408
5491.000000	0.063878	0.059683	0.644181
5492.000000	0.065503	0.061499	0.877842
5493.000000	0.065445	0.070517	0.676625
5494.000000	0.067054	0.068425	1.423489
5495.000000	0.060302	0.075750	0.790244
5496.000000	0.066122	0.068147	0.836670
5497.000000	0.053750	0.058148	0.338616
5498.000000	0.059381	0.056504	1.756425
5499.000000	0.068587	0.070026	0.952512
5500.000000	0.060227	0.059871	2.413295
# Same

# Scan parameters: power 16.000000 dBm, bandwidth 1.500000 Hz
# Frequency [MHz]	avg noise	std noise	peak value
3900.000000	1.662106	0.917774	20.163056
3901.000000	0.087706	0.088819	15.669600
3902.000000	0.096260	0.112696	5.663596
3903.000000	0.094018	0.089141	9.602976
3904.000000	0.084091	0.078854	5.193254
3905.000000	0.102241	0.100115	2.077121
3906.000000	0.085267	0.081960	0.873174
3907.000000	0.085099	0.083389	1.218125
3908.000000	0.081484	0.076544	4.661899
3909.000000	0.084804	0.078902	11.478971
3910.000000	0.085426	0.081166	14.093078
3911.000000	0.084648	0.094824	28.640111
3912.000000	0.087994	0.083104	38.354078
3913.000000	0.083959	0.086920	26.556104
3914.000000	0.091153	0.084252	57.509442
3915.000000	0.093897	0.095112	60.174236
3916.000000	0.094614	0.101106	48.981853
3917.000000	0.095545	0.088895	109.535016
3918.000000	0.087326	0.080665	76.942811
3919.000000	0.083054	0.084011	81.577857
3920.000000	0.088720	0.083149	122.063550
3921.000000	0.086000	0.075928	70.444511
3922.000000	0.098570	0.091154	106.623319
3923.000000	0.087890	0.084001	125.178027
3924.000000	0.095489	0.099477	54.784346
3925.000000	0.087986	0.082023	122.567208
3926.000000	0.100631	0.103462	109.833773
3927.000000	0.083410	0.078988	61.141431
3928.000000	0.101967	0.100418	104.437643
3929.000000	0.101610	0.099308	90.545659
3930.000000	0.092508	0.095663	78.838960
3931.000000	0.078124	0.088234	140.007649
3932.000000	0.085881	0.087863	91.494345
3933.000000	0.086976	0.081422	104.719201
3934.000000	0.091488	0.098944	125.960501
3935.000000	0.097765	0.101117	55.980011
3936.000000	0.097064	0.099144	94.525610
3937.000000	0.084421	0.081691	85.815273
3938.000000	0.088272	0.083558	35.780008
3939.000000	0.086881	0.085301	82.116901
3940.000000	0.087325	0.084083	82.130833
3941.000000	0.092370	0.095376	58.245137
3942.000000	0.084067	0.073709	112.344899
3943.000000	0.088235	0.080731	96.298542
3944.000000	0.083357	0.079884	106.263151
3945.000000	0.086024	0.073996	164.306458
3946.000000	0.101738	0.098928	109.332759
3947.000000	0.091159	0.096248	156.568087
3948.000000	0.086123	0.084243	201.366207
3949.000000	0.086024	0.076446	97.115254
3950.000000	0.096739	0.096664	228.194875
3951.000000	0.093847	0.091194	237.134492
3952.000000	0.093385	0.085142	144.608002
3953.000000	0.086804	0.083055	293.836528
3954.000000	0.087028	0.091452	243.536603
3955.000000	0.087049	0.079121	208.877777
3956.000000	0.080569	0.079961	324.182090
3957.000000	0.088050	0.089426	220.357106
3958.000000	0.087571	0.089518	268.825469
3959.000000	0.096777	0.084647	332.261262
3960.000000	0.096613	0.112538	183.060011
3961.000000	0.086898	0.092247	291.044535
3962.000000	0.086111	0.095942	309.054870
3963.000000	0.105752	0.100566	134.506101
3964.000000	0.088695	0.083735	286.286153
3965.000000	0.095405	0.087673	234.191912
3966.000000	0.098800	0.101604	148.958659
3967.000000	0.073476	0.073429	245.404637
3968.000000	0.094990	0.094756	179.255392
3969.000000	0.089309	0.095603	185.728852
3970.000000	0.096426	0.092060	282.060006
3971.000000	0.094130	0.110738	172.008018
3972.000000	0.090509	0.105024	277.149735
3973.000000	0.085025	0.085202	338.176658
3974.000000	0.087097	0.088048	155.034852
3975.000000	0.091335	0.085935	342.561464
3976.000000	0.092751	0.093034	356.218264
3977.000000	0.086305	0.091963	197.460277
3978.000000	0.093580	0.087855	395.836794
3979.000000	0.089281	0.089008	303.897447
3980.000000	0.089981	0.087478	261.895973
3981.000000	0.095542	0.099673	391.310905
3982.000000	0.089444	0.091779	265.145283
3983.000000	0.084486	0.083143	312.074639
3984.000000	0.079895	0.079174	432.466170
3985.000000	0.099697	0.095502	240.297283
3986.000000	0.089924	0.080780	446.247313
3987.000000	0.101819	0.094470	540.239919
3988.000000	0.089283	0.089244	264.667443
3989.000000	0.086744	0.087301	662.758500
3990.000000	0.079635	0.078142	617.378349
3991.000000	0.085690	0.084814	436.523861
3992.000000	0.094544	0.092859	824.648363
3993.000000	0.094018	0.100924	600.312563
3994.000000	0.099380	0.118252	622.490801
3995.000000	0.082790	0.078413	896.426042
3996.000000	0.097316	0.112192	524.933618
3997.000000	0.095093	0.087307	736.546116
3998.000000	0.097343	0.102859	889.783983
3999.000000	0.083165	0.086753	391.031797
4000.000000	0.090484	0.078870	815.788413
4001.000000	0.094487	0.096182	772.741502
4002.000000	0.104759	0.107224	442.515601
4003.000000	0.093575	0.105530	831.654925
4004.000000	0.084466	0.082230	654.634345
4005.000000	0.091506	0.092042	534.999798
4006.000000	0.078295	0.075637	804.469866
4007.000000	0.098522	0.100971	506.030659
4008.000000	0.476216	0.277556	558.422954
4009.000000	0.084495	0.088731	656.307467
4010.000000	0.105304	0.090872	327.814311
4011.000000	0.083785	0.100164	489.862730
4012.000000	0.096248	0.095263	483.408391
4013.000000	0.096161	0.100952	217.876480
4014.000000	0.083526	0.080802	428.705091
4015.000000	0.096243	0.101138	349.307764
4016.000000	0.085332	0.074194	207.103180
4017.000000	0.095145	0.090620	347.767491
4018.000000	0.084758	0.087501	216.130386
4019.000000	0.088488	0.094050	205.202720
4020.000000	0.099381	0.090739	273.283093
4021.000000	0.090307	0.085271	156.931434
4022.000000	0.084634	0.085522	227.029749
4023.000000	0.079409	0.080108	263.235835
4024.000000	0.094988	0.103848	120.191345
4025.000000	0.100776	0.089949	268.798570
4026.000000	0.084438	0.079858	265.001115
4027.000000	0.098125	0.098023	158.669271
4028.000000	0.087818	0.089031	308.156592
4029.000000	0.097726	0.091430	223.890973
4030.000000	0.096725	0.092376	180.360623
4031.000000	0.093927	0.087954	256.979694
4032.000000	0.088398	0.089870	158.090772
4033.000000	0.093207	0.095124	163.983585
4034.000000	0.101827	0.110741	181.446945
4035.000000	0.092446	0.091144	73.733596
4036.000000	0.096946	0.107233	110.163746
4037.000000	0.090843	0.087828	102.107489
4038.000000	0.088285	0.081259	37.539661
4039.000000	0.096648	0.083221	94.228389
4040.000000	0.079243	0.083725	100.149383
4041.000000	0.100087	0.098560	64.557351
4042.000000	0.093316	0.080812	137.368993
4043.000000	0.093819	0.091842	122.372019
4044.000000	0.097907	0.110326	138.862627
4045.000000	0.090215	0.084276	216.981664
4046.000000	0.101128	0.099716	125.128787
4047.000000	0.096061	0.091004	198.879480
4048.000000	0.092852	0.088019	230.363378
4049.000000	0.096575	0.096670	92.686827
4050.000000	0.096944	0.103569	201.997814
4051.000000	0.100921	0.100868	175.948271
4052.000000	0.093176	0.085317	91.958360
4053.000000	0.088085	0.090953	145.685725
4054.000000	0.105108	0.100253	79.111256
4055.000000	0.093040	0.089365	49.307028
4056.000000	0.088447	0.092367	51.009098
4057.000000	0.098287	0.093418	22.594869
4058.000000	0.093795	0.093623	15.784354
4059.000000	0.086073	0.090606	14.954853
4060.000000	0.092177	0.084399	7.759733
4061.000000	0.094413	0.084313	17.752655
4062.000000	0.101751	0.093985	25.410134
4063.000000	0.092065	0.098412	12.377344
4064.000000	0.105946	0.112527	37.157614
4065.000000	0.090514	0.089232	37.278978
4066.000000	0.091512	0.089077	31.529777
4067.000000	0.093170	0.086752	64.389045
4068.000000	0.101942	0.101487	54.914958
4069.000000	0.099127	0.103345	61.820988
4070.000000	0.091122	0.095833	100.163464
4071.000000	0.104674	0.112669	64.769560
4072.000000	0.110651	0.113879	103.653619
4073.000000	0.108151	0.104885	121.849349
4074.000000	0.114753	0.119346	65.454413
4075.000000	0.115314	0.112491	142.290432
4076.000000	0.109946	0.112074	160.287928
4077.000000	0.117087	0.127767	92.236822
4078.000000	0.117684	0.119601	188.001679
4079.000000	0.122003	0.123849	156.498864
4080.000000	0.120122	0.117975	139.736217
4081.000000	0.116864	0.121016	207.354396
4082.000000	0.110902	0.106191	140.822396
4083.000000	0.107513	0.113779	174.344356
4084.000000	0.118809	0.114785	219.697817
4085.000000	0.114245	0.111985	129.200947
4086.000000	0.136368	0.131643	249.009560
4087.000000	0.140754	0.143835	281.453195
4088.000000	0.138327	0.164594	152.069020
4089.000000	0.155448	0.163706	385.724080
4090.000000	0.165288	0.164252	369.698766
4091.000000	0.171292	0.193738	277.606462
4092.000000	0.150855	0.128670	493.958407
4093.000000	0.157778	0.161124	349.874835
4094.000000	0.236101	0.251112	316.058970
4095.000000	0.528288	0.416170	466.326600
4096.000000	0.181047	0.188959	226.819735
4097.000000	0.183309	0.183245	308.103203
4098.000000	0.284883	0.323307	348.149188
4099.000000	0.272202	0.249643	149.252256
4100.000000	0.378048	0.372359	282.302284
4101.000000	0.432340	0.452529	232.718441
4102.000000	0.416829	0.447967	126.722316
4103.000000	0.361040	0.306451	184.964199
4104.000000	0.611028	0.625521	131.420521
4105.000000	0.454367	0.478003	91.809908
4106.000000	0.731557	0.779505	168.533864
4107.000000	0.396279	0.357918	96.361856
4108.000000	0.308265	0.293692	118.759471
4109.000000	0.286893	0.286707	141.095248
4110.000000	0.182050	0.191745	86.143761
4111.000000	0.174434	0.175273	123.141490
4112.000000	0.247961	0.250732	125.399349
4113.000000	0.153368	0.148984	65.029639
4114.000000	0.175627	0.191508	135.464452
4115.000000	0.167872	0.155900	121.331054
4116.000000	0.159377	0.165230	79.720153
4117.000000	0.174311	0.178412	148.744501
4118.000000	0.153653	0.152367	99.046241
4119.000000	0.137014	0.136013	93.567968
4120.000000	0.122996	0.120052	140.497605
4121.000000	0.139703	0.143864	73.514028
4122.000000	0.126273	0.126976	106.773425
4123.000000	0.127212	0.122611	127.687211
4124.000000	0.111225	0.104944	52.241984
4125.000000	0.100086	0.097950	131.872318
4126.000000	0.102159	0.109715	121.755408
4127.000000	0.107745	0.100513	77.275673
4128.000000	0.110307	0.121391	135.483636
4129.000000	0.102107	0.099975	102.792436
4130.000000	0.100681	0.097955	89.057599
4131.000000	0.100683	0.095998	134.639795
4132.000000	0.100901	0.099700	94.429991
4133.000000	0.100484	0.106177	120.768673
4134.000000	0.091279	0.096834	144.951354
4135.000000	0.088397	0.092360	85.808901
4136.000000	0.091581	0.098831	144.968668
4137.000000	0.084845	0.074837	147.969584
4138.000000	0.092657	0.095260	67.354786
4139.000000	0.090999	0.082023	150.181780
4140.000000	0.094743	0.086926	140.412262
4141.000000	0.095384	0.105162	105.949434
4142.000000	0.076335	0.081639	180.398182
4143.000000	0.082508	0.095914	126.006139
4144.000000	0.093519	0.104250	113.982607
4145.000000	0.074701	0.072801	160.408842
4146.000000	0.082323	0.075995	95.854250
4147.000000	0.081971	0.082579	123.014405
4148.000000	0.076079	0.072416	143.247572
4149.000000	0.086471	0.084079	57.931363
4150.000000	0.080511	0.077015	99.566301
4151.000000	0.087178	0.081210	82.710301
4152.000000	0.089234	0.085809	54.874477
4153.000000	0.080871	0.083233	87.034722
4154.000000	0.083883	0.088618	61.720468
4155.000000	0.085088	0.084482	55.373918
4156.000000	0.084739	0.095713	68.591224
4157.000000	0.069399	0.075401	44.266483
4158.000000	3.077623	0.673120	30.727546
4159.000000	0.076337	0.067712	54.182713
4160.000000	0.075916	0.070649	27.957929
4161.000000	0.079227	0.081109	42.460698
4162.000000	0.075929	0.069656	52.010442
4163.000000	0.077250	0.084684	33.158928
4164.000000	0.069209	0.062797	68.190572
4165.000000	0.079047	0.071185	78.159347
4166.000000	0.069555	0.080481	57.969962
4167.000000	0.076623	0.078522	99.212740
4168.000000	0.073728	0.076194	86.221789
4169.000000	0.077944	0.081138	79.995773
4170.000000	0.072329	0.068329	114.436695
4171.000000	0.066797	0.067897	62.244941
4172.000000	0.068306	0.070920	95.466431
4173.000000	0.074142	0.076957	106.302536
4174.000000	0.072448	0.073293	52.633947
4175.000000	0.074501	0.074817	105.942369
4176.000000	0.083819	0.079699	103.182242
4177.000000	0.073807	0.087791	58.740004
4178.000000	0.065771	0.063560	114.739715
4179.000000	0.065665	0.066979	97.325146
4180.000000	0.069952	0.067949	74.833620
4181.000000	0.069897	0.062125	126.043700
4182.000000	0.065574	0.069175	84.616692
4183.000000	0.072754	0.062203	103.481346
4184.000000	0.075571	0.072648	136.698542
4185.000000	0.063355	0.063436	64.525091
4186.000000	0.072379	0.073322	103.984255
4187.000000	0.069344	0.070808	124.109207
4188.000000	0.065739	0.063702	52.810659
4189.000000	0.076556	0.074089	119.264147
4190.000000	0.069505	0.067412	99.122099
4191.000000	0.069876	0.058071	67.200918
4192.000000	0.079336	0.071141	118.192410
4193.000000	0.067290	0.069139	87.679518
4194.000000	0.063614	0.055233	85.719726
4195.000000	0.068654	0.066384	113.840597
4196.000000	0.071083	0.066131	64.291619
4197.000000	0.064258	0.073767	89.322618
4198.000000	0.064278	0.064195	107.417613
4199.000000	0.067189	0.069335	44.601077
4200.000000	0.061984	0.063802	85.736302
4201.000000	0.064402	0.068522	86.743711
4202.000000	0.065233	0.064378	50.845605
4203.000000	0.067306	0.064257	95.576570
4204.000000	0.069059	0.074862	70.152608
4205.000000	0.063926	0.070047	54.398274
4206.000000	0.061952	0.059070	93.858167
4207.000000	0.059712	0.062253	58.770655
4208.000000	0.063334	0.063372	74.431467
4209.000000	0.063969	0.058671	106.988494
4210.000000	0.063397	0.081762	60.017433
4211.000000	0.060217	0.062410	90.707554
4212.000000	0.062892	0.066150	111.087466
4213.000000	0.060665	0.060545	49.562944
4214.000000	0.056163	0.059074	115.868706
4215.000000	0.063958	0.064308	103.597659
4216.000000	0.069203	0.068449	68.561420
4217.000000	0.055794	0.062399	117.446331
4218.000000	0.062702	0.057818	81.425423
4219.000000	0.065848	0.063328	87.194579
4220.000000	0.059809	0.053772	141.916525
4221.000000	0.055170	0.053472	79.730092
4222.000000	0.061015	0.068200	127.466209
4223.000000	0.062591	0.062020	157.254079
4224.000000	0.065389	0.057588	77.125616
4225.000000	0.060030	0.061018	152.921941
4226.000000	0.056623	0.051628	145.819102
4227.000000	0.063515	0.066723	89.997312
4228.000000	0.066396	0.062138	165.763982
4229.000000	0.067039	0.075516	140.098334
4230.000000	0.060595	0.062203	108.815086
4231.000000	0.063860	0.071080	182.633956
4232.000000	0.066465	0.072376	121.656116
4233.000000	0.059641	0.057711	144.657385
4234.000000	0.062696	0.071800	184.832337
4235.000000	0.056941	0.055447	98.992960
4236.000000	0.068389	0.066054	160.080578
4237.000000	0.060088	0.054351	180.423952
4238.000000	0.057966	0.054953	72.537977
4239.000000	0.054952	0.052499	164.257173
4240.000000	0.057213	0.057902	153.269894
4241.000000	0.065805	0.069299	94.210947
4242.000000	0.063005	0.056781	173.013424
4243.000000	0.063926	0.060406	112.934971
4244.000000	0.061749	0.055720	115.010266
4245.000000	0.065385	0.072287	162.455096
4246.000000	0.058114	0.062372	88.094417
4247.000000	0.065092	0.060007	124.017884
4248.000000	0.059747	0.056100	135.767672
4249.000000	0.058167	0.049932	57.279170
4250.000000	0.066910	0.070858	110.736701
4251.000000	0.062481	0.063391	114.809720
4252.000000	0.059187	0.065323	70.080518
4253.000000	0.060867	0.055675	139.525985
4254.000000	0.051770	0.051857	103.977591
4255.000000	0.058723	0.056508	85.463103
4256.000000	0.074794	0.062238	120.322622
4257.000000	0.057386	0.058144	75.467397
4258.000000	0.058069	0.055688	86.344177
4259.000000	0.062611	0.058269	111.356971
4260.000000	0.061423	0.055363	65.011813
4261.000000	0.057685	0.061382	102.122429
4262.000000	0.058541	0.055444	126.250909
4263.000000	0.063863	0.062778	52.371296
4264.000000	0.060331	0.056953	110.256532
4265.000000	0.056168	0.056516	88.788459
4266.000000	0.056337	0.052323	65.431289
4267.000000	0.061153	0.062977	108.156033
4268.000000	0.053888	0.052897	83.497847
4269.000000	0.056223	0.059247	73.170650
4270.000000	0.063494	0.064420	116.303049
4271.000000	0.057556	0.058230	64.274538
4272.000000	0.060350	0.060277	83.621233
4273.000000	0.055709	0.049240	97.862387
4274.000000	0.062535	0.067257	39.819523
4275.000000	0.049565	0.049607	71.034998
4276.000000	0.057356	0.056651	60.831416
4277.000000	0.058393	0.056765	32.474784
4278.000000	0.065257	0.081660	54.838497
4279.000000	0.057254	0.059530	41.429413
4280.000000	0.060363	0.068302	26.074623
4281.000000	0.052273	0.052675	40.203117
4282.000000	0.053356	0.052198	20.973950
4283.000000	0.054496	0.050029	21.445584
4284.000000	0.055999	0.050725	20.123665
4285.000000	0.051181	0.045545	8.259949
4286.000000	0.052815	0.054058	13.820123
4287.000000	0.051870	0.053893	12.586104
4288.000000	0.059669	0.057921	5.503626
4289.000000	0.054922	0.053535	12.267132
4290.000000	0.053908	0.047788	7.735260
4291.000000	0.048259	0.048433	5.108685
4292.000000	0.059058	0.060198	11.679537
4293.000000	0.053927	0.052659	10.598849
4294.000000	0.051097	0.049792	9.545741
4295.000000	0.055187	0.056309	10.691957
4296.000000	0.054480	0.055760	5.272630
4297.000000	0.050891	0.046696	6.019346
4298.000000	0.055480	0.056985	6.590241
4299.000000	0.048166	0.047836	3.104929
4300.000000	0.050807	0.050127	6.737635
4301.000000	0.055744	0.055014	5.898803
4302.000000	0.051789	0.047285	3.354515
4303.000000	0.048473	0.042535	5.224019
4304.000000	0.055339	0.064523	4.242902
4305.000000	0.051332	0.056362	4.755262
4306.000000	0.052250	0.045694	6.586399
4307.000000	0.055391	0.057207	4.524792
4308.000000	0.055491	0.054574	4.990492
4309.000000	0.055588	0.057993	6.281848
4310.000000	0.059259	0.053643	4.525410
4311.000000	0.053511	0.051904	9.609418
4312.000000	0.049267	0.047880	9.625824
4313.000000	0.052004	0.051279	6.211041
4314.000000	0.048106	0.051267	14.864294
4315.000000	0.051344	0.052818	17.370140
4316.000000	0.052038	0.049478	11.859000
4317.000000	0.053808	0.051204	26.570290
4318.000000	0.049715	0.051641	22.227941
4319.000000	0.053288	0.055283	22.178698
4320.000000	0.048671	0.047040	32.641797
4321.000000	0.060066	0.059227	21.505009
4322.000000	0.057845	0.067263	33.257331
4323.000000	0.057416	0.055621	39.109435
4324.000000	0.050445	0.043090	18.953769
4325.000000	0.047709	0.044146	50.603176
4326.000000	0.052707	0.054605	54.092334
4327.000000	0.056644	0.057020	32.796184
4328.000000	0.057678	0.054078	62.973499
4329.000000	0.059209	0.065082	51.657998
4330.000000	0.058271	0.071947	42.962707
4331.000000	0.065266	0.064850	70.882532
4332.000000	0.052171	0.058103	48.934465
4333.000000	0.055283	0.055875	49.873375
4334.000000	0.058512	0.058044	60.692100
4335.000000	0.052198	0.056200	32.597568
4336.000000	0.058717	0.059922	52.371843
4337.000000	0.054866	0.059335	52.648398
4338.000000	0.057664	0.050836	24.409517
4339.000000	0.058602	0.059866	46.830754
4340.000000	0.054028	0.055226	42.077600
4341.000000	0.052843	0.058923	28.551653
4342.000000	0.054648	0.059511	47.006360
4343.000000	0.060986	0.058874	31.437426
4344.000000	0.055160	0.053752	32.056628
4345.000000	0.059201	0.064078	51.122443
4346.000000	0.053666	0.055625	28.541079
4347.000000	0.064522	0.067611	44.510905
4348.000000	0.057641	0.055871	56.309972
4349.000000	0.061331	0.059564	27.215402
4350.000000	0.055803	0.060620	59.124643
4351.000000	0.059916	0.065029	50.607855
4352.000000	0.056958	0.058091	30.249410
4353.000000	0.063012	0.063375	57.523327
4354.000000	0.050808	0.053613	43.551795
4355.000000	0.055075	0.051024	35.003911
4356.000000	0.048155	0.054274	55.401834
4357.000000	0.055177	0.057074	38.160932
4358.000000	0.055116	0.050848	45.486823
4359.000000	0.061022	0.060018	55.488776
4360.000000	0.059213	0.059083	31.498083
4361.000000	0.053474	0.057855	43.286680
4362.000000	0.050275	0.046785	46.840098
4363.000000	0.051345	0.049023	20.428147
4364.000000	0.046955	0.046286	42.640214
4365.000000	0.059615	0.055043	38.529359
4366.000000	0.055648	0.054500	27.248942
4367.000000	0.055194	0.060869	43.008287
4368.000000	0.057531	0.058416	32.113981
4369.000000	0.060171	0.060941	28.967637
4370.000000	0.055479	0.053493	43.306627
4371.000000	0.048060	0.041303	21.943909
4372.000000	0.054201	0.056786	37.195114
4373.000000	0.054413	0.052989	40.397275
4374.000000	0.054337	0.052428	18.095056
4375.000000	0.057560	0.062352	38.032933
4376.000000	0.066935	0.067243	38.435108
4377.000000	0.056830	0.056808	25.458165
4378.000000	0.052748	0.048393	42.764595
4379.000000	0.055459	0.048529	37.174038
4380.000000	0.057569	0.056632	28.493997
4381.000000	0.061428	0.064847	43.570228
4382.000000	0.053708	0.048708	28.613964
4383.000000	0.056129	0.051045	30.994807
4384.000000	0.058420	0.052048	46.344401
4385.000000	0.043247	0.045246	20.185887
4386.000000	0.057943	0.053394	36.584130
4387.000000	0.053770	0.051377	40.604608
4388.000000	0.052779	0.054828	17.306558
4389.000000	0.057584	0.054911	37.303522
4390.000000	0.057958	0.056329	35.300287
4391.000000	0.057872	0.058185	26.013890
4392.000000	0.054333	0.058022	37.427620
4393.000000	0.049636	0.050848	18.620543
4394.000000	0.061280	0.056486	27.858899
4395.000000	0.064336	0.062719	33.731207
4396.000000	0.062769	0.058850	18.682870
4397.000000	0.053607	0.058460	30.219806
4398.000000	0.057348	0.056449	27.541231
4399.000000	0.058687	0.055857	14.083415
4400.000000	0.059967	0.057935	24.001803
4401.000000	0.055246	0.056272	26.453831
4402.000000	0.060305	0.050182	14.153904
4403.000000	0.060389	0.063550	23.593743
4404.000000	0.057196	0.058775	17.586808
4405.000000	0.067614	0.065465	15.265614
4406.000000	0.060739	0.061691	19.614250
4407.000000	0.054779	0.052376	11.514808
4408.000000	0.061043	0.059212	11.578149
4409.000000	0.056886	0.053605	14.894820
4410.000000	0.055547	0.054234	6.830977
4411.000000	0.066208	0.062788	12.432922
4412.000000	0.054114	0.057458	11.844840
4413.000000	0.057643	0.047911	6.065323
4414.000000	0.061795	0.063914	15.969340
4415.000000	0.066795	0.060851	15.875841
4416.000000	0.058042	0.055117	13.372721
4417.000000	0.059682	0.058457	24.212204
4418.000000	0.064239	0.067325	14.314806
4419.000000	0.059885	0.055899	15.690390
4420.000000	0.062345	0.063818	21.925511
4421.000000	0.055595	0.050029	13.102733
4422.000000	0.061346	0.060974	19.048871
4423.000000	0.063029	0.058847	20.340305
4424.000000	0.064989	0.065984	6.412269
4425.000000	0.063574	0.068764	20.723327
4426.000000	0.067339	0.060080	14.936524
4427.000000	0.063787	0.074674	7.517851
4428.000000	0.058603	0.049725	17.893558
4429.000000	0.065745	0.062765	12.260949
4430.000000	0.067756	0.065727	10.372299
4431.000000	0.061713	0.061086	12.800428
4432.000000	0.063752	0.061162	9.658787
4433.000000	0.061695	0.060450	8.734606
4434.000000	0.069554	0.063842	11.396492
4435.000000	0.068243	0.076279	6.302364
4436.000000	0.056230	0.054251	12.156377
4437.000000	0.069578	0.071615	11.547396
4438.000000	0.066567	0.072445	5.245078
4439.000000	0.064768	0.062647	14.712756
4440.000000	0.064466	0.073762	14.382577
4441.000000	0.066829	0.063651	6.520929
4442.000000	0.076591	0.079357	15.354422
4443.000000	0.073784	0.074410	11.022600
4444.000000	0.068140	0.065700	9.945427
4445.000000	0.066541	0.061581	13.545323
4446.000000	0.071518	0.072031	5.478654
4447.000000	0.071398	0.069163	6.446829
4448.000000	0.073739	0.074972	7.752054
4449.000000	0.062857	0.060143	3.807463
4450.000000	0.071546	0.068114	9.024228
4451.000000	0.055896	0.057519	8.835077
4452.000000	0.072262	0.068062	5.906245
4453.000000	0.077379	0.076808	11.414464
4454.000000	0.075581	0.071093	10.134289
4455.000000	0.075763	0.079646	8.738732
4456.000000	0.071285	0.064777	12.352667
4457.000000	0.076249	0.072116	9.533475
4458.000000	0.065056	0.060889	9.725238
4459.000000	0.077579	0.079763	18.198753
4460.000000	0.075481	0.082602	9.947399
4461.000000	0.077602	0.079949	18.718572
4462.000000	0.078215	0.076250	19.157768
4463.000000	0.081542	0.076676	11.435371
4464.000000	0.076090	0.081532	26.380073
4465.000000	0.065096	0.063634	25.755955
4466.000000	0.070905	0.067985	17.304310
4467.000000	0.078398	0.087825	26.453142
4468.000000	0.066851	0.063000	21.265970
4469.000000	0.069495	0.069422	22.936711
4470.000000	0.072155	0.068725	29.180273
4471.000000	0.071596	0.073492	14.584351
4472.000000	0.077877	0.078810	21.490491
4473.000000	0.067294	0.062112	24.627463
4474.000000	0.077258	0.078985	9.466136
4475.000000	0.079242	0.068022	27.032530
4476.000000	0.073073	0.071385	25.372387
4477.000000	0.078111	0.084191	19.417291
4478.000000	0.074935	0.070773	44.513922
4479.000000	0.082710	0.075647	34.340893
4480.000000	0.076127	0.081070	25.095674
4481.000000	0.085943	0.081171	48.521733
4482.000000	0.075430	0.078146	32.026466
4483.000000	0.080540	0.074889	41.642451
4484.000000	0.086186	0.085740	55.356965
4485.000000	0.092538	0.088207	34.707996
4486.000000	0.098804	0.103150	55.328813
4487.000000	0.094261	0.094369	67.431532
4488.000000	0.102475	0.099323	32.107567
4489.000000	0.105149	0.106199	62.646077
4490.000000	0.078657	0.072858	61.149998
4491.000000	0.079126	0.080435	36.335467
4492.000000	0.074507	0.070290	63.126139
4493.000000	0.075647	0.079886	46.126116
4494.000000	0.076242	0.070738	48.765071
4495.000000	0.068419	0.060441	82.254512
4496.000000	0.083910	0.074490	50.168651
4497.000000	0.075388	0.066484	74.012062
4498.000000	0.071554	0.071379	106.537408
4499.000000	0.079767	0.089854	50.450381
4500.000000	0.084904	0.095853	129.750869
4501.000000	0.075476	0.079643	141.467588
4502.000000	0.071524	0.077027	90.754341
4503.000000	0.071540	0.066865	167.876922
4504.000000	0.087169	0.089185	144.136007
4505.000000	0.064322	0.054709	121.842174
4506.000000	0.069706	0.068660	203.756800
4507.000000	0.072848	0.069868	135.822421
4508.000000	0.066673	0.069237	156.315257
4509.000000	0.077131	0.070080	196.069295
4510.000000	0.081602	0.089990	105.805769
4511.000000	0.078254	0.079619	163.083795
4512.000000	0.076409	0.079645	182.226730
4513.000000	0.078043	0.073517	80.813146
4514.000000	0.072239	0.068837	176.666392
4515.000000	0.073230	0.076213	152.236759
4516.000000	0.074988	0.086641	100.243664
4517.000000	0.070165	0.071632	181.699125
4518.000000	0.065163	0.068217	132.148839
4519.000000	0.070237	0.068819	138.086756
4520.000000	0.085778	0.073430	209.691133
4521.000000	0.077740	0.077087	123.923562
4522.000000	0.074358	0.088282	196.588096
4523.000000	0.073564	0.068143	232.596173
4524.000000	0.074053	0.068125	109.307524
4525.000000	0.077554	0.073661	239.862325
4526.000000	0.071031	0.070954	243.823351
4527.000000	0.079946	0.100978	138.709174
4528.000000	0.071873	0.071053	259.735693
4529.000000	0.064366	0.073119	195.787850
4530.000000	0.076029	0.072913	154.670298
4531.000000	0.069510	0.075420	222.275361
4532.000000	0.071740	0.071597	142.091745
4533.000000	0.072086	0.069133	163.894027
4534.000000	0.068889	0.065163	187.845844
4535.000000	0.072673	0.073573	98.620327
4536.000000	0.065938	0.063398	173.293403
4537.000000	0.071625	0.068722	160.267722
4538.000000	0.065403	0.069393	69.885804
4539.000000	0.073213	0.070552	136.625642
4540.000000	0.059824	0.052914	97.760663
4541.000000	0.066405	0.061643	58.001182
4542.000000	0.066890	0.063474	92.344626
4543.000000	0.074697	0.075784	58.688107
4544.000000	0.071826	0.069271	47.805306
4545.000000	0.064429	0.059492	59.871209
4546.000000	0.069992	0.068285	28.338465
4547.000000	0.057713	0.057572	44.326679
4548.000000	0.069263	0.069829	50.055970
4549.000000	0.067140	0.072252	20.830572
4550.000000	0.068244	0.064852	44.979896
4551.000000	0.072309	0.075147	40.390471
4552.000000	0.071926	0.068134	22.168804
4553.000000	0.057967	0.055873	44.751500
4554.000000	0.064654	0.062541	37.417628
4555.000000	0.076015	0.079267	34.453357
4556.000000	0.068464	0.067753	46.799872
4557.000000	0.074634	0.080697	31.679634
4558.000000	0.063478	0.055843	43.731830
4559.000000	0.065774	0.060883	47.038527
4560.000000	0.067440	0.070764	33.994970
4561.000000	0.077019	0.075615	56.081258
4562.000000	0.068628	0.063381	69.862118
4563.000000	0.064623	0.065810	31.416901
4564.000000	0.067323	0.068824	77.079978
4565.000000	0.067604	0.068746	71.069840
4566.000000	0.068314	0.070597	43.690669
4567.000000	0.060706	0.063455	81.959194
4568.000000	0.065467	0.065014	52.356562
4569.000000	0.070939	0.065536	53.139732
4570.000000	0.062961	0.061305	71.149199
4571.000000	0.062107	0.063056	30.555175
4572.000000	0.053615	0.050813	36.945634
4573.000000	0.065524	0.065232	40.717792
4574.000000	0.067560	0.063262	11.564768
4575.000000	0.065591	0.059633	17.597694
4576.000000	0.059601	0.060836	13.811074
4577.000000	0.064888	0.063514	3.578439
4578.000000	0.060514	0.058897	2.783870
4579.000000	0.069025	0.072374	1.922974
4580.000000	0.064336	0.064997	2.084919
4581.000000	0.065015	0.067376	1.593860
4582.000000	0.072557	0.074115	3.204445
4583.000000	0.062665	0.063276	4.365984
4584.000000	0.058558	0.055943	4.789485
4585.000000	0.058272	0.069009	4.083637
4586.000000	0.058731	0.054952	7.048909
4587.000000	0.058074	0.055246	9.691455
4588.000000	0.056039	0.052465	3.598864
4589.000000	0.053312	0.054806	7.891869
4590.000000	0.062515	0.069844	4.907610
4591.000000	0.064827	0.062623	2.633593
4592.000000	0.069733	0.071728	5.057908
4593.000000	0.056859	0.052431	1.808723
4594.000000	0.062563	0.056952	2.000554
4595.000000	0.057311	0.061908	1.175430
4596.000000	0.067865	0.069190	0.959625
4597.000000	0.059727	0.055501	0.840655
4598.000000	0.060266	0.056027	0.947674
4599.000000	0.063288	0.066073	0.956549
4600.000000	0.066650	0.070188	2.603745
4601.000000	0.056473	0.050552	4.998891
4602.000000	0.065036	0.067337	2.680465
4603.000000	0.060731	0.065835	8.601726
4604.000000	0.064745	0.061106	10.586754
4605.000000	0.055433	0.050919	13.014757
4606.000000	0.055554	0.055172	26.791952
4607.000000	0.051086	0.051090	24.165715
4608.000000	0.061806	0.056111	38.383834
4609.000000	0.057315	0.058422	46.225893
4610.000000	0.055044	0.054939	31.887768
4611.000000	0.067733	0.065219	58.453703
4612.000000	0.062745	0.066359	62.345271
4613.000000	0.054052	0.053955	27.910033
4614.000000	0.059970	0.056381	67.218399
4615.000000	0.064750	0.058955	64.751806
4616.000000	0.061089	0.061277	50.234962
4617.000000	0.057290	0.060920	83.991273
4618.000000	0.062317	0.068603	66.754551
4619.000000	0.058874	0.056110	65.353287
4620.000000	0.064271	0.062612	111.829577
4621.000000	0.063285	0.061899	69.900999
4622.000000	0.060502	0.063733	110.544431
4623.000000	0.061140	0.058645	139.190042
4624.000000	0.061160	0.055580	67.088625
4625.000000	0.058716	0.054197	156.585397
4626.000000	0.063248	0.062019	160.252517
4627.000000	0.060643	0.063789	95.327475
4628.000000	0.059184	0.052023	177.620648
4629.000000	0.060627	0.057615	149.263128
4630.000000	0.058822	0.057813	117.033504
4631.000000	0.069761	0.066148	183.806931
4632.000000	0.053597	0.051695	117.159546
4633.000000	0.069520	0.068159	147.749921
4634.000000	0.059141	0.059677	182.299978
4635.000000	0.066574	0.067952	96.730971
4636.000000	0.054565	0.050959	158.196989
4637.000000	0.061768	0.055921	158.216789
4638.000000	0.063247	0.059255	74.529388
4639.000000	0.063936	0.063427	167.116122
4640.000000	0.053000	0.056009	146.483974
4641.000000	0.059322	0.056017	100.470889
4642.000000	0.055812	0.056585	166.457021
4643.000000	0.054457	0.057540	122.344008
4644.000000	0.059384	0.057122	112.913341
4645.000000	0.065590	0.068058	171.811613
4646.000000	0.056247	0.051899	106.892966
4647.000000	0.070934	0.068750	148.597622
4648.000000	0.061848	0.070750	194.060979
4649.000000	0.062566	0.059148	90.793033
4650.000000	0.064205	0.062458	201.872835
4651.000000	0.061161	0.064805	207.003616
4652.000000	0.058023	0.063567	124.068123
4653.000000	0.058172	0.056224	233.512945
4654.000000	0.057319	0.055985	177.534463
4655.000000	0.064285	0.059154	145.741686
4656.000000	0.065249	0.062171	210.771637
4657.000000	0.064829	0.061224	130.504874
4658.000000	0.066634	0.062719	144.961304
4659.000000	0.063444	0.066363	174.597350
4660.000000	0.060951	0.058928	93.537477
4661.000000	0.071492	0.073075	138.740004
4662.000000	0.062194	0.064827	137.589253
4663.000000	0.064613	0.064655	69.373729
4664.000000	0.067979	0.064528	150.035188
4665.000000	0.060192	0.059985	128.032125
4666.000000	0.064085	0.068978	90.250260
4667.000000	0.064842	0.058911	156.483306
4668.000000	0.069974	0.063983	112.723362
4669.000000	0.071271	0.072330	112.086198
4670.000000	0.070276	0.074473	174.818067
4671.000000	0.068944	0.068687	101.878384
4672.000000	0.066056	0.062152	139.926985
4673.000000	0.073706	0.074010	164.048773
4674.000000	0.073082	0.075099	73.948230
4675.000000	0.074037	0.079455	148.088762
4676.000000	0.070473	0.060634	146.236821
4677.000000	0.067289	0.065271	86.654981
4678.000000	0.075873	0.071622	164.281132
4679.000000	0.076756	0.072960	129.325218
4680.000000	0.074454	0.073035	103.725217
4681.000000	0.079427	0.086936	156.899249
4682.000000	0.066731	0.063160	94.916286
4683.000000	0.063897	0.066159	110.234951
4684.000000	0.071644	0.070461	118.370219
4685.000000	0.068574	0.068817	59.473129
4686.000000	0.068318	0.069141	113.016875
4687.000000	0.078838	0.076875	110.611935
4688.000000	0.071307	0.071794	51.820802
4689.000000	0.061707	0.063244	110.012153
4690.000000	0.077701	0.080906	96.059628
4691.000000	0.073947	0.066419	68.546295
4692.000000	0.059346	0.065335	105.899202
4693.000000	0.066800	0.058768	70.396100
4694.000000	0.068283	0.066831	74.952338
4695.000000	0.060386	0.061988	101.493566
4696.000000	0.069394	0.062555	65.845894
4697.000000	0.065174	0.062046	95.922893
4698.000000	0.068458	0.067600	112.610425
4699.000000	0.068894	0.062584	52.881967
4700.000000	0.070901	0.066847	106.768122
4701.000000	0.069299	0.069689	113.186097
4702.000000	0.076419	0.076181	55.990607
4703.000000	0.065668	0.070955	105.747827
4704.000000	0.074641	0.063391	86.172571
4705.000000	0.065463	0.062001	67.045978
4706.000000	0.076326	0.078422	96.994413
4707.000000	0.073254	0.065541	64.626848
4708.000000	0.077708	0.070448	73.935850
4709.000000	0.075546	0.077947	87.471618
4710.000000	0.073911	0.072127	45.301380
4711.000000	0.072748	0.083916	68.706309
4712.000000	0.067262	0.060129	74.533794
4713.000000	0.068763	0.072014	32.758558
4714.000000	0.071653	0.079289	72.223891
4715.000000	0.067976	0.072851	54.784583
4716.000000	0.073962	0.073087	38.245501
4717.000000	0.071912	0.076931	68.363037
4718.000000	0.075299	0.077508	47.701243
4719.000000	0.072695	0.072825	42.249682
4720.000000	0.066153	0.076859	68.529104
4721.000000	0.059690	0.055752	30.746423
4722.000000	0.069710	0.067854	59.697696
4723.000000	0.065156	0.065830	70.491512
4724.000000	0.072435	0.067877	28.737314
4725.000000	0.077833	0.072961	64.521010
4726.000000	0.072543	0.077226	72.034530
4727.000000	0.070373	0.067401	35.903251
4728.000000	0.062339	0.063259	73.395391
4729.000000	0.074898	0.077000	62.386180
4730.000000	0.078819	0.072280	58.749992
4731.000000	0.081666	0.088900	85.774623
4732.000000	0.072221	0.073780	61.814082
4733.000000	0.080304	0.075690	75.602112
4734.000000	0.079171	0.081099	100.006245
4735.000000	0.068014	0.077986	55.906733
4736.000000	0.075681	0.078760	103.861530
4737.000000	0.073196	0.068121	119.659164
4738.000000	0.072230	0.065767	59.406065
4739.000000	0.064237	0.063426	143.933412
4740.000000	0.075496	0.071993	126.008096
4741.000000	0.079439	0.080538	87.637873
4742.000000	0.069996	0.070406	144.027444
4743.000000	0.069206	0.070876	100.507335
4744.000000	0.065787	0.061847	102.048067
4745.000000	0.069928	0.063980	139.731658
4746.000000	0.074519	0.068796	76.289677
4747.000000	0.078927	0.080075	115.828592
4748.000000	0.077008	0.072312	137.558360
4749.000000	0.074897	0.081905	60.583983
4750.000000	0.074404	0.071885	121.535939
4751.000000	0.069957	0.067245	109.844289
4752.000000	0.077978	0.083808	65.405738
4753.000000	0.072753	0.069245	124.217575
4754.000000	0.069729	0.066407	101.539737
4755.000000	0.079608	0.070764	94.256289
4756.000000	0.065777	0.067260	141.579124
4757.000000	0.063003	0.060240	82.328142
4758.000000	0.073208	0.079893	102.446231
4759.000000	0.065427	0.061734	133.746882
4760.000000	0.078612	0.074242	67.585599
4761.000000	0.067322	0.073053	113.397022
4762.000000	0.080072	0.072959	125.969366
4763.000000	0.073049	0.084338	61.314810
4764.000000	0.070855	0.072416	135.679641
4765.000000	0.069604	0.069112	120.067680
4766.000000	0.073458	0.073651	83.455685
4767.000000	0.061047	0.062359	131.599270
4768.000000	0.083283	0.083356	90.376552
4769.000000	0.083033	0.086911	85.469458
4770.000000	0.073269	0.072764	123.068334
4771.000000	0.072073	0.077737	71.340302
4772.000000	0.075627	0.075818	95.900466
4773.000000	0.074197	0.069552	121.105911
4774.000000	0.075655	0.074032	58.557403
4775.000000	0.070794	0.067479	125.829428
4776.000000	0.067107	0.064415	122.233099
4777.000000	0.075382	0.060690	68.165294
4778.000000	0.069893	0.068800	125.705607
4779.000000	0.064159	0.060913	100.567876
4780.000000	0.073729	0.074295	74.466896
4781.000000	0.076204	0.076783	124.887860
4782.000000	0.066294	0.066047	73.254970
4783.000000	0.077559	0.073595	86.164047
4784.000000	0.077012	0.075290	105.076775
4785.000000	0.073339	0.079028	55.398353
4786.000000	0.074486	0.067474	93.431266
4787.000000	0.078533	0.080254	107.580635
4788.000000	0.074620	0.075163	56.230242
4789.000000	0.072317	0.077572	114.703308
4790.000000	0.071503	0.073147	100.652679
4791.000000	0.074487	0.065979	64.742691
4792.000000	0.068536	0.068220	106.899677
4793.000000	0.074915	0.080518	72.080934
4794.000000	0.073768	0.072283	74.843580
4795.000000	0.078468	0.077908	109.905567
4796.000000	0.067874	0.074991	74.178325
4797.000000	0.070549	0.072211	109.060429
4798.000000	0.073140	0.076590	142.210163
4799.000000	0.079449	0.073452	66.459391
4800.000000	0.077882	0.082036	152.721105
4801.000000	0.069127	0.065845	159.890328
4802.000000	0.062622	0.065063	98.324443
4803.000000	0.070185	0.058103	195.266582
4804.000000	0.078790	0.083240	159.019168
4805.000000	0.076621	0.081467	134.286414
4806.000000	0.072534	0.072800	204.494020
4807.000000	0.067198	0.061863	131.210443
4808.000000	0.074037	0.086232	140.229749
4809.000000	0.076458	0.082266	167.678004
4810.000000	0.082002	0.077330	80.772349
4811.000000	0.081658	0.074941	125.785950
4812.000000	0.081155	0.086126	134.822769
4813.000000	0.073608	0.067849	55.957108
4814.000000	0.068175	0.064238	131.452753
4815.000000	0.078538	0.088949	111.303849
4816.000000	0.079104	0.085608	73.718458
4817.000000	0.073121	0.076203	127.348709
4818.000000	0.073171	0.069870	78.669128
4819.000000	0.075006	0.077517	81.584359
4820.000000	0.066328	0.068739	113.636171
4821.000000	0.077064	0.073336	58.457607
4822.000000	0.076823	0.075068	86.570547
4823.000000	0.081664	0.078286	110.983156
4824.000000	0.077631	0.077820	48.400802
4825.000000	0.074982	0.088073	90.577037
4826.000000	0.077368	0.072278	71.871711
4827.000000	0.078891	0.081271	38.062936
4828.000000	0.087181	0.085773	71.467080
4829.000000	0.077247	0.078429	59.865183
4830.000000	0.080752	0.074087	41.678538
4831.000000	0.090036	0.095232	63.229310
4832.000000	0.077216	0.082009	40.173532
4833.000000	0.080825	0.079311	44.108981
4834.000000	0.085504	0.093566	57.277692
4835.000000	0.072191	0.069468	27.055471
4836.000000	0.082733	0.077459	48.382626
4837.000000	0.088037	0.098836	58.334875
4838.000000	0.075988	0.083984	29.333911
4839.000000	0.086383	0.083184	63.552040
4840.000000	0.072931	0.075019	55.749351
4841.000000	0.080474	0.086207	37.224006
4842.000000	0.072959	0.060214	71.965528
4843.000000	0.084088	0.082357	39.560832
4844.000000	0.080760	0.080086	40.720114
4845.000000	0.079722	0.079335	57.576327
4846.000000	0.083222	0.082618	26.396406
4847.000000	0.083876	0.077694	29.297357
4848.000000	0.083638	0.090127	33.608958
4849.000000	0.085038	0.091623	11.136865
4850.000000	0.087884	0.092997	23.416101
4851.000000	0.086432	0.090275	20.485465
4852.000000	0.083764	0.086839	10.874572
4853.000000	0.076041	0.069841	25.064354
4854.000000	0.076884	0.076307	24.191534
4855.000000	0.078145	0.083881	21.387092
4856.000000	0.085104	0.077747	34.371341
4857.000000	0.087024	0.082941	24.592299
4858.000000	0.076346	0.069377	26.182837
4859.000000	0.076288	0.072942	31.438424
4860.000000	0.081702	0.076492	17.054612
4861.000000	0.073447	0.078428	31.935002
4862.000000	0.081907	0.085161	39.367740
4863.000000	0.072048	0.068794	18.408927
4864.000000	0.100463	0.099812	35.560965
4865.000000	0.083288	0.079659	27.799127
4866.000000	0.071015	0.075096	17.815955
4867.000000	0.073731	0.062585	31.453898
4868.000000	0.083734	0.095274	18.953342
4869.000000	0.080367	0.085372	21.068038
4870.000000	0.080376	0.083027	34.389583
4871.000000	0.076634	0.074149	15.000197
4872.000000	0.076533	0.076358	16.863286
4873.000000	0.076682	0.085459	21.497599
4874.000000	0.077284	0.076152	10.323160
4875.000000	0.069090	0.068899	19.277118
4876.000000	0.070473	0.076299	18.926263
4877.000000	0.076146	0.091350	10.394446
4878.000000	0.073193	0.079057	19.080237
4879.000000	0.073410	0.066453	16.192094
4880.000000	0.070118	0.067770	13.053213
4881.000000	0.080087	0.075808	27.359212
4882.000000	0.066363	0.064639	18.877522
4883.000000	0.080355	0.082044	27.471625
4884.000000	0.076736	0.078958	25.947619
4885.000000	0.069173	0.069304	16.934729
4886.000000	0.065524	0.062541	25.919588
4887.000000	0.066604	0.077182	25.678587
4888.000000	0.065449	0.062013	9.313620
4889.000000	0.062094	0.059881	25.722656
4890.000000	0.068155	0.066996	29.430856
4891.000000	0.070849	0.063817	16.681056
4892.000000	0.062214	0.061307	38.208105
4893.000000	0.061334	0.061049	27.044102
4894.000000	0.066916	0.068094	26.231644
4895.000000	0.064050	0.069334	35.561943
4896.000000	0.064546	0.064048	18.093546
4897.000000	0.071965	0.071596	29.769192
4898.000000	0.068712	0.065048	36.073762
4899.000000	0.063027	0.067326	17.296542
4900.000000	0.073614	0.063862	36.856138
4901.000000	0.066789	0.067466	35.190149
4902.000000	0.071330	0.063644	18.306538
4903.000000	0.063843	0.069539	38.418326
4904.000000	0.062727	0.063446	28.631520
4905.000000	0.066568	0.067089	25.325480
4906.000000	0.063249	0.063193	43.386633
4907.000000	0.067484	0.067193	25.795679
4908.000000	0.063381	0.069323	29.439243
4909.000000	0.061945	0.071273	38.362629
4910.000000	0.063214	0.064315	18.218429
4911.000000	0.061991	0.053771	37.000531
4912.000000	0.064106	0.064960	37.582364
4913.000000	0.059584	0.058745	16.341560
4914.000000	0.065687	0.063431	38.891846
4915.000000	0.065645	0.068538	36.776900
4916.000000	0.065831	0.066142	22.765430
4917.000000	0.074711	0.081661	42.407277
4918.000000	0.056467	0.062564	28.275106
4919.000000	0.063847	0.059582	30.847721
4920.000000	0.063920	0.069339	45.670590
4921.000000	0.060995	0.058269	24.826922
4922.000000	0.063829	0.067363	33.837099
4923.000000	0.066673	0.062603	40.897678
4924.000000	0.068174	0.063955	16.352284
4925.000000	0.064832	0.062500	43.351089
4926.000000	0.081546	0.073873	46.155253
4927.000000	0.071569	0.069972	35.226225
4928.000000	0.061773	0.070763	60.010712
4929.000000	0.069479	0.063997	46.986767
4930.000000	0.063502	0.063721	43.916587
4931.000000	0.063784	0.062081	68.116509
4932.000000	0.063709	0.065693	42.931203
4933.000000	0.060695	0.051114	52.689863
4934.000000	0.064056	0.056273	69.589992
4935.000000	0.060705	0.055455	35.384672
4936.000000	0.067619	0.065142	62.259924
4937.000000	0.061832	0.070073	58.923928
4938.000000	0.067528	0.074210	26.798803
4939.000000	0.056541	0.060509	42.673437
4940.000000	0.077697	0.073382	36.007949
4941.000000	0.071762	0.064773	23.536573
4942.000000	0.064560	0.065120	39.680886
4943.000000	0.066728	0.061771	30.937335
4944.000000	0.062039	0.064986	30.756698
4945.000000	0.064128	0.059979	43.522447
4946.000000	0.054764	0.051731	29.781945
4947.000000	0.075236	0.068907	42.528716
4948.000000	0.069221	0.069449	53.803699
4949.000000	0.064096	0.065551	23.720169
4950.000000	0.067203	0.071592	55.131521
4951.000000	0.069642	0.071706	46.272028
4952.000000	0.066059	0.060244	30.761992
4953.000000	0.068276	0.061188	48.243204
4954.000000	0.070396	0.074867	47.832375
4955.000000	0.060713	0.057544	37.585844
4956.000000	0.063307	0.064880	63.519323
4957.000000	0.070885	0.076221	40.246606
4958.000000	0.066765	0.066443	48.666114
4959.000000	0.079659	0.079039	48.378442
4960.000000	0.074825	0.069753	24.683291
4961.000000	0.070816	0.069030	38.388275
4962.000000	0.062951	0.055218	38.583424
4963.000000	0.076696	0.070083	16.499161
4964.000000	0.067864	0.068819	34.921640
4965.000000	0.074358	0.068036	31.226699
4966.000000	0.079473	0.081219	22.046369
4967.000000	0.073346	0.066607	38.460479
4968.000000	0.069925	0.059988	25.434798
4969.000000	0.075000	0.081995	25.696180
4970.000000	0.066936	0.061224	42.119041
4971.000000	0.071624	0.072511	22.283908
4972.000000	0.067848	0.059091	33.514013
4973.000000	0.075093	0.070002	43.329155
4974.000000	0.073708	0.073697	23.200593
4975.000000	0.089316	0.090624	55.669210
4976.000000	0.075071	0.084384	54.259930
4977.000000	0.065835	0.066665	32.984624
4978.000000	0.076008	0.074503	63.416246
4979.000000	0.075665	0.071552	57.788821
4980.000000	0.075752	0.083877	48.514221
4981.000000	0.067741	0.069593	65.892842
4982.000000	0.080129	0.074186	39.093903
4983.000000	0.082036	0.081662	46.618637
4984.000000	0.072885	0.073463	43.196586
4985.000000	0.071756	0.077670	24.108054
4986.000000	0.071638	0.073031	32.182686
4987.000000	0.082852	0.093637	23.970215
4988.000000	0.074028	0.071294	8.920244
4989.000000	0.077837	0.077287	15.348524
4990.000000	0.085686	0.086303	10.704176
4991.000000	0.075938	0.070414	8.521174
4992.000000	0.085801	0.094697	15.895629
4993.000000	0.074998	0.079078	13.511355
4994.000000	0.085887	0.087076	16.826745
4995.000000	0.065386	0.069294	17.792761
4996.000000	0.076232	0.084106	12.668260
4997.000000	0.078809	0.076130	11.651223
4998.000000	0.073299	0.068415	18.194332
4999.000000	0.076463	0.081000	10.201853
5000.000000	0.082711	0.089492	28.302605
5001.000000	0.071823	0.070267	32.297740
5002.000000	0.080232	0.081692	19.540326
5003.000000	0.069254	0.062856	43.574892
5004.000000	0.086158	0.089778	34.309916
5005.000000	0.075376	0.072792	29.121067
5006.000000	0.082368	0.086582	55.234118
5007.000000	0.095971	0.095458	37.811416
5008.000000	0.071232	0.067768	45.217656
5009.000000	0.085020	0.090054	61.059428
5010.000000	0.087294	0.098051	33.086052
5011.000000	0.090386	0.091655	54.929297
5012.000000	0.078804	0.075359	57.551022
5013.000000	0.090825	0.086586	33.699441
5014.000000	0.083554	0.085511	62.956785
5015.000000	0.083734	0.075650	59.267996
5016.000000	0.074388	0.078198	44.783567
5017.000000	0.084327	0.076528	87.978626
5018.000000	0.078683	0.082753	61.049590
5019.000000	0.077954	0.081210	54.870405
5020.000000	0.076684	0.075242	79.537022
5021.000000	0.082417	0.081744	50.588286
5022.000000	0.076497	0.081001	63.946743
5023.000000	0.078204	0.074997	79.918090
5024.000000	0.079773	0.079522	38.161635
5025.000000	0.087096	0.084504	64.482777
5026.000000	0.075082	0.072158	69.898561
5027.000000	0.083847	0.087134	39.913575
5028.000000	0.083966	0.083970	73.494130
5029.000000	0.087518	0.080418	57.616464
5030.000000	0.073105	0.070003	43.190092
5031.000000	0.072187	0.071761	69.720984
5032.000000	0.077940	0.087993	53.182128
5033.000000	0.069425	0.062493	66.482227
5034.000000	0.083981	0.083804	74.457424
5035.000000	0.081622	0.074108	35.019941
5036.000000	0.073300	0.071167	55.650600
5037.000000	0.082627	0.079964	58.415753
5038.000000	0.083531	0.087846	25.023546
5039.000000	0.087998	0.084172	43.818165
5040.000000	0.082068	0.072550	39.548105
5041.000000	0.083069	0.082721	22.653356
5042.000000	0.090471	0.100151	41.255313
5043.000000	0.075948	0.075559	31.785173
5044.000000	0.078658	0.072547	27.372085
5045.000000	0.079567	0.079615	36.183902
5046.000000	0.080569	0.083500	21.506915
5047.000000	0.080115	0.082527	35.126211
5048.000000	0.072525	0.076457	39.814438
5049.000000	0.086135	0.100107	21.551305
5050.000000	0.090814	0.084610	34.278074
5051.000000	0.092357	0.086467	37.894038
5052.000000	0.089656	0.081745	15.175928
5053.000000	0.087294	0.091712	27.613079
5054.000000	0.080006	0.091400	18.392352
5055.000000	0.080101	0.074371	14.369354
5056.000000	0.091739	0.092959	15.195098
5057.000000	0.086882	0.095659	11.235609
5058.000000	0.084141	0.082347	12.162373
5059.000000	0.088587	0.092805	14.498279
5060.000000	0.081426	0.075076	10.347270
5061.000000	0.085585	0.083873	15.500524
5062.000000	0.088251	0.084049	15.665755
5063.000000	0.086318	0.080390	7.566175
5064.000000	0.072783	0.081170	12.231116
5065.000000	0.074244	0.071541	11.518226
5066.000000	0.103792	0.099871	7.787507
5067.000000	0.088011	0.085255	10.668247
5068.000000	0.090676	0.087667	10.335018
5069.000000	0.091970	0.088491	6.377316
5070.000000	0.083316	0.082652	9.385152
5071.000000	0.092215	0.084606	5.890213
5072.000000	0.083244	0.084958	9.990788
5073.000000	0.096723	0.096281	11.194291
5074.000000	0.091482	0.084051	7.484732
5075.000000	0.093855	0.097372	19.022839
5076.000000	0.087763	0.087844	19.727820
5077.000000	0.093991	0.096379	8.334178
5078.000000	0.084829	0.087729	14.128081
5079.000000	0.084763	0.080512	10.209288
5080.000000	0.088155	0.083729	9.213053
5081.000000	0.089401	0.081355	15.727774
5082.000000	0.085202	0.080393	14.783542
5083.000000	0.089043	0.093858	17.293996
5084.000000	0.100209	0.101401	16.052415
5085.000000	0.091394	0.087617	11.321763
5086.000000	0.084044	0.083787	17.925135
5087.000000	0.089833	0.087330	24.390552
5088.000000	0.098502	0.098730	11.766480
5089.000000	0.100646	0.105922	26.481093
5090.000000	0.099206	0.092139	24.515922
5091.000000	0.087438	0.075798	22.112971
5092.000000	0.101050	0.116007	52.562193
5093.000000	0.091025	0.082500	38.660462
5094.000000	0.101365	0.110321	35.838257
5095.000000	0.098575	0.095537	75.717515
5096.000000	0.088361	0.076871	48.643984
5097.000000	0.092047	0.086024	65.910303
5098.000000	0.089028	0.091477	95.807153
5099.000000	0.090676	0.089664	48.378633
5100.000000	0.086841	0.081893	83.782113
5101.000000	0.098666	0.090380	94.255371
5102.000000	0.098423	0.103541	49.392334
5103.000000	0.115170	0.121071	105.069191
5104.000000	0.095213	0.095394	72.862187
5105.000000	0.089490	0.091611	72.063537
5106.000000	0.092426	0.087052	119.944318
5107.000000	0.100480	0.109418	81.758040
5108.000000	0.098892	0.101125	85.171149
5109.000000	0.096059	0.094258	99.336686
5110.000000	0.097554	0.093833	51.938026
5111.000000	0.088792	0.096449	85.732317
5112.000000	0.086101	0.083429	94.019960
5113.000000	0.083876	0.088122	48.575155
5114.000000	0.095934	0.097871	112.700733
5115.000000	0.095883	0.095372	118.921143
5116.000000	0.110438	0.114144	81.120917
5117.000000	0.096742	0.098351	159.209756
5118.000000	0.103844	0.095096	134.061876
5119.000000	0.095153	0.102271	110.865922
5120.000000	0.087799	0.087555	159.213391
5121.000000	0.100171	0.093927	89.472874
5122.000000	0.100070	0.091272	122.659017
5123.000000	0.089532	0.081281	142.650361
5124.000000	0.096702	0.090005	71.102130
5125.000000	0.099202	0.105138	130.597221
5126.000000	0.089605	0.102494	129.924729
5127.000000	0.089551	0.076372	66.828392
5128.000000	0.106941	0.112787	126.138095
5129.000000	0.122262	0.131419	103.198263
5130.000000	0.105952	0.116743	80.526529
5131.000000	0.117654	0.119305	125.042753
5132.000000	0.108315	0.108864	96.773797
5133.000000	0.099643	0.100516	114.178733
5134.000000	0.104143	0.103397	155.801335
5135.000000	0.090441	0.087415	81.239881
5136.000000	0.103787	0.114192	138.703215
5137.000000	0.100860	0.090044	166.278989
5138.000000	0.109715	0.104234	78.546745
5139.000000	0.117421	0.116219	155.332150
5140.000000	0.108512	0.099820	135.265443
5141.000000	0.110755	0.107292	87.028352
5142.000000	0.099017	0.089602	160.644653
5143.000000	0.101639	0.105667	111.502053
5144.000000	0.110568	0.119933	110.681743
5145.000000	0.116190	0.114793	180.052565
5146.000000	0.100508	0.092303	100.476129
5147.000000	0.114136	0.132760	149.273222
5148.000000	0.104349	0.105921	159.839261
5149.000000	0.121892	0.131781	71.110662
5150.000000	0.108568	0.105263	103.947389
5151.000000	0.109565	0.130890	101.593688
5152.000000	0.104405	0.099437	53.930099
5153.000000	0.107668	0.102044	103.218571
5154.000000	0.112634	0.115127	92.838449
5155.000000	0.110297	0.106805	75.565317
5156.000000	0.127149	0.117195	104.748594
5157.000000	0.108973	0.107359	72.884706
5158.000000	0.133350	0.128844	76.063412
5159.000000	0.105279	0.101233	89.183875
5160.000000	0.111398	0.110980	46.666067
5161.000000	0.108270	0.097459	75.274470
5162.000000	0.109694	0.097199	91.823787
5163.000000	0.131320	0.120536	39.340475
5164.000000	0.104864	0.105471	82.163396
5165.000000	0.116635	0.101057	83.608612
5166.000000	0.109898	0.109237	50.065940
5167.000000	0.116545	0.116300	84.849643
5168.000000	0.121680	0.115848	58.591104
5169.000000	0.107410	0.130303	44.135667
5170.000000	0.112216	0.113322	66.666714
5171.000000	0.105254	0.102406	35.034929
5172.000000	0.102852	0.097078	40.098979
5173.000000	0.114383	0.108642	40.157466
5174.000000	0.102084	0.108582	16.229400
5175.000000	0.124039	0.117771	25.716505
5176.000000	0.113604	0.113710	31.184434
5177.000000	0.110210	0.106716	15.269768
5178.000000	0.108750	0.104616	21.011263
5179.000000	0.114867	0.099102	12.649195
5180.000000	0.101458	0.107352	8.597259
5181.000000	0.117953	0.120981	13.140835
5182.000000	0.109774	0.108898	9.971006
5183.000000	0.119326	0.103795	9.559098
5184.000000	0.111883	0.115916	16.276835
5185.000000	0.095001	0.096745	8.338233
5186.000000	0.101636	0.100985	10.165025
5187.000000	0.098457	0.100054	7.938644
5188.000000	0.122057	0.111869	4.800751
5189.000000	0.106701	0.118445	6.600388
5190.000000	0.093196	0.099190	5.389101
5191.000000	0.097318	0.094556	3.663621
5192.000000	0.099010	0.098851	4.472276
5193.000000	0.107737	0.109776	3.969621
5194.000000	0.105782	0.106209	2.272448
5195.000000	0.100887	0.100705	4.082532
5196.000000	0.105292	0.111168	1.146816
5197.000000	0.109335	0.125051	2.472379
5198.000000	0.107503	0.110104	1.758343
5199.000000	0.105437	0.095017	0.922528
5200.000000	0.103113	0.098275	1.048364
5201.000000	0.101242	0.112190	0.636638
5202.000000	0.107921	0.098088	0.817829
5203.000000	0.101219	0.095021	1.248480
5204.000000	0.100494	0.092557	0.592532
5205.000000	0.109646	0.114972	0.481588
5206.000000	0.101087	0.097828	1.001346
5207.000000	0.107900	0.109429	1.186628
5208.000000	0.094702	0.093542	1.152379
5209.000000	0.111481	0.110555	3.286751
5210.000000	0.106957	0.096988	2.319231
5211.000000	0.108310	0.098438	2.344716
5212.000000	0.095665	0.093712	2.933179
5213.000000	0.119495	0.110721	0.636025
5214.000000	0.092861	0.097803	1.824884
5215.000000	0.120378	0.125630	1.152691
5216.000000	0.108474	0.105293	0.735439
5217.000000	0.107985	0.107186	2.578495
5218.000000	0.096377	0.091629	2.974368
5219.000000	0.103394	0.098217	4.463211
5220.000000	0.110687	0.112238	8.525954
5221.000000	0.112141	0.116849	5.259338
5222.000000	0.119055	0.104577	8.534145
5223.000000	0.098914	0.093558	9.323500
5224.000000	0.114426	0.119801	4.769629
5225.000000	0.106731	0.118744	10.829450
5226.000000	0.115119	0.138662	14.020000
5227.000000	0.119520	0.123553	8.752569
5228.000000	0.100935	0.101113	22.051413
5229.000000	0.115769	0.110739	26.249320
5230.000000	0.102542	0.108130	18.948805
5231.000000	0.106492	0.101568	34.676643
5232.000000	0.114163	0.119858	19.245327
5233.000000	0.108957	0.111605	18.420865
5234.000000	0.112620	0.112030	26.474164
5235.000000	0.099407	0.105917	12.881362
5236.000000	0.110987	0.110273	27.024988
5237.000000	0.114610	0.116054	27.979530
5238.000000	0.129313	0.132929	15.416558
5239.000000	0.112619	0.104577	22.046915
5240.000000	0.116504	0.120441	16.970336
5241.000000	0.124326	0.109303	7.159797
5242.000000	0.098596	0.083906	20.035421
5243.000000	0.111160	0.096405	17.308223
5244.000000	0.113542	0.107461	16.192241
5245.000000	0.112366	0.102539	22.052172
5246.000000	0.105634	0.101027	11.644893
5247.000000	0.107123	0.106773	20.310921
5248.000000	0.105619	0.103323	20.235594
5249.000000	0.105308	0.105404	11.622699
5250.000000	0.108584	0.113799	25.520003
5251.000000	0.100116	0.086634	26.216828
5252.000000	0.111766	0.111889	11.824779
5253.000000	0.103146	0.099776	26.757343
5254.000000	0.099976	0.095170	23.051583
5255.000000	0.106026	0.110616	14.287922
5256.000000	0.103886	0.110531	31.189154
5257.000000	0.104866	0.112725	16.374044
5258.000000	0.112416	0.128657	24.731629
5259.000000	0.112259	0.116281	31.906927
5260.000000	0.118027	0.109449	15.979442
5261.000000	0.105920	0.100147	25.637735
5262.000000	0.117966	0.111875	27.184574
5263.000000	0.109531	0.107324	13.622861
5264.000000	0.100149	0.102085	22.654530
5265.000000	0.112861	0.103755	21.214456
5266.000000	0.120940	0.124964	12.695228
5267.000000	0.097186	0.103243	29.631137
5268.000000	0.120666	0.124951	22.128693
5269.000000	0.102290	0.100834	12.606779
5270.000000	0.109462	0.107425	24.815451
5271.000000	0.117414	0.119145	15.593118
5272.000000	0.102576	0.108626	15.079012
5273.000000	0.101002	0.112161	12.305390
5274.000000	0.092072	0.100994	4.560920
5275.000000	0.111409	0.119033	5.603787
5276.000000	0.114865	0.109810	4.064995
5277.000000	0.101236	0.090586	2.568702
5278.000000	0.108828	0.102174	3.134732
5279.000000	0.101965	0.091178	4.353915
5280.000000	0.108314	0.091014	6.973915
5281.000000	0.100128	0.107368	9.522982
5282.000000	0.109373	0.130381	12.813239
5283.000000	0.096083	0.098717	13.393972
5284.000000	0.108021	0.099390	23.277666
5285.000000	0.101427	0.088260	9.707686
5286.000000	0.104828	0.105139	20.092710
5287.000000	0.095248	0.105380	11.271799
5288.000000	0.098209	0.094758	7.596380
5289.000000	0.102422	0.103994	12.547449
5290.000000	0.123259	0.122245	10.878019
5291.000000	0.095684	0.092215	8.914194
5292.000000	0.092449	0.093606	22.968713
5293.000000	0.091319	0.091710	13.768547
5294.000000	0.095501	0.095187	13.035390
5295.000000	0.112434	0.106443	13.774589
5296.000000	0.105595	0.108502	8.516441
5297.000000	0.102242	0.099375	11.798593
5298.000000	0.089045	0.080471	13.790460
5299.000000	0.101296	0.112355	6.170212
5300.000000	0.078739	0.070561	14.203470
5301.000000	0.103584	0.094668	17.360693
5302.000000	0.092944	0.078556	10.831809
5303.000000	0.088728	0.076081	20.264923
5304.000000	0.093985	0.094309	15.956979
5305.000000	0.104169	0.105623	8.996790
5306.000000	0.093886	0.090001	11.019235
5307.000000	0.093735	0.100106	6.605326
5308.000000	0.097604	0.084374	7.379795
5309.000000	0.090753	0.090947	7.803578
5310.000000	0.096460	0.101564	3.807498
5311.000000	0.090144	0.084185	6.137782
5312.000000	0.101228	0.097440	9.565610
5313.000000	0.102729	0.106321	3.970425
5314.000000	0.090718	0.094053	7.662580
5315.000000	0.089627	0.096966	7.172684
5316.000000	0.093900	0.091277	6.319063
5317.000000	0.087781	0.077643	12.213635
5318.000000	0.091523	0.081758	8.744328
5319.000000	0.085519	0.076821	9.308320
5320.000000	0.089337	0.085778	12.774627
5321.000000	0.076621	0.076049	5.975804
5322.000000	0.085924	0.085876	10.164946
5323.000000	0.094194	0.107712	11.758123
5324.000000	0.084370	0.084426	9.903251
5325.000000	0.083785	0.087955	18.482962
5326.000000	0.077720	0.070311	17.140443
5327.000000	0.087951	0.102972	11.530327
5328.000000	0.089345	0.090689	13.088066
5329.000000	0.071148	0.071685	12.737408
5330.000000	0.081298	0.080939	8.934608
5331.000000	0.075846	0.084437	13.521008
5332.000000	0.077607	0.072928	12.578685
5333.000000	0.084075	0.086089	13.413012
5334.000000	0.079528	0.076871	23.618200
5335.000000	0.076504	0.089280	11.483447
5336.000000	0.082164	0.073491	18.756732
5337.000000	0.081173	0.073002	23.597814
5338.000000	0.075888	0.075435	12.718944
5339.000000	0.073198	0.075159	30.305014
5340.000000	0.082937	0.087482	34.073296
5341.000000	0.080496	0.074347	25.572779
5342.000000	0.080425	0.074737	48.588435
5343.000000	0.080220	0.084460	41.839876
5344.000000	0.074163	0.077099	37.863263
5345.000000	0.093191	0.084802	64.954993
5346.000000	0.076172	0.077121	36.952121
5347.000000	0.081298	0.083119	51.056750
5348.000000	0.087050	0.088797	54.707772
5349.000000	0.071514	0.071136	26.037528
5350.000000	0.075526	0.073190	42.906329
5351.000000	0.074559	0.069899	39.460362
5352.000000	0.074750	0.067954	25.914513
5353.000000	0.065584	0.066376	45.780999
5354.000000	0.078054	0.079436	39.952914
5355.000000	0.073639	0.071655	21.653085
5356.000000	0.065501	0.066096	39.979454
5357.000000	0.075175	0.074732	24.449484
5358.000000	0.072178	0.071795	24.838596
5359.000000	0.085989	0.073248	23.836104
5360.000000	0.079804	0.076649	13.350529
5361.000000	0.077129	0.080116	19.388246
5362.000000	0.074600	0.070891	19.858286
5363.000000	0.076372	0.076592	12.070761
5364.000000	0.076930	0.079645	23.395024
5365.000000	0.081368	0.078173	17.897376
5366.000000	0.075303	0.072588	13.970352
5367.000000	0.076811	0.072310	19.480772
5368.000000	0.079696	0.066760	15.243901
5369.000000	0.069912	0.079631	13.406464
5370.000000	0.068103	0.069201	23.864884
5371.000000	0.061669	0.068949	14.389948
5372.000000	0.061540	0.060412	24.705388
5373.000000	0.072907	0.072076	26.531685
5374.000000	0.078617	0.078789	11.480896
5375.000000	0.074278	0.069864	20.220414
5376.000000	0.072134	0.068710	22.898703
5377.000000	0.061873	0.070307	11.498948
5378.000000	0.075829	0.083024	27.025904
5379.000000	0.087512	0.108688	20.528349
5380.000000	0.073881	0.064727	16.509867
5381.000000	0.070138	0.068914	27.187633
5382.000000	0.073115	0.088627	17.679902
5383.000000	0.071332	0.062964	22.010459
5384.000000	0.075883	0.073534	23.463468
5385.000000	0.075373	0.069956	10.869598
5386.000000	0.076985	0.079653	17.985616
5387.000000	0.068301	0.069968	17.256032
5388.000000	0.072001	0.069911	8.508663
5389.000000	0.084534	0.080451	17.895138
5390.000000	0.066965	0.065452	19.896244
5391.000000	0.078345	0.076188	13.184884
5392.000000	0.078617	0.080213	22.979634
5393.000000	0.067867	0.063557	17.575355
5394.000000	0.077324	0.075659	14.324092
5395.000000	0.075775	0.086025	22.931621
5396.000000	0.071428	0.071380	14.017549
5397.000000	0.073198	0.063742	19.525138
5398.000000	0.074290	0.074189	21.743338
5399.000000	0.079797	0.074836	12.416351
5400.000000	0.071501	0.066057	13.851862
5401.000000	0.072992	0.078364	15.336364
5402.000000	0.074629	0.076689	9.465370
5403.000000	0.087019	0.088471	11.423844
5404.000000	0.073053	0.069768	7.625451
5405.000000	0.076019	0.077246	7.454325
5406.000000	0.083428	0.087794	13.482184
5407.000000	0.082367	0.082729	11.284909
5408.000000	0.086911	0.086569	9.913803
5409.000000	0.065558	0.061706	12.899669
5410.000000	0.068927	0.069920	5.014418
5411.000000	0.074015	0.073641	8.440331
5412.000000	0.080987	0.090085	9.910873
5413.000000	0.076902	0.074775	2.770121
5414.000000	0.068539	0.079964	6.424190
5415.000000	0.078372	0.084183	6.163013
5416.000000	0.077917	0.070780	4.934056
5417.000000	0.071144	0.070565	7.709900
5418.000000	0.072201	0.069407	6.506784
5419.000000	0.070721	0.064556	6.290678
5420.000000	0.066038	0.074622	9.501199
5421.000000	0.084914	0.091396	6.991686
5422.000000	0.081614	0.087460	10.191406
5423.000000	0.077007	0.073073	11.214274
5424.000000	0.086321	0.084596	6.973479
5425.000000	0.080726	0.082945	11.877767
5426.000000	0.068505	0.066944	11.888802
5427.000000	0.075539	0.070209	4.009545
5428.000000	0.074323	0.073578	10.491249
5429.000000	0.067938	0.077345	7.828270
5430.000000	0.061888	0.057823	6.767597
5431.000000	0.070205	0.063455	13.044904
5432.000000	0.072557	0.077772	9.204088
5433.000000	0.072875	0.074468	7.724925
5434.000000	0.067006	0.069391	12.337605
5435.000000	0.079235	0.073641	3.419051
5436.000000	0.075609	0.075795	7.975533
5437.000000	0.073864	0.074919	6.619817
5438.000000	0.072679	0.070507	3.807927
5439.000000	0.081663	0.079928	6.873809
5440.000000	0.082800	0.087501	7.644460
5441.000000	0.059303	0.064090	4.588349
5442.000000	0.074884	0.075181	10.857268
5443.000000	0.077757	0.078133	5.649108
5444.000000	0.073200	0.074551	3.965938
5445.000000	0.079883	0.086777	9.839167
5446.000000	0.073340	0.071336	4.011435
5447.000000	0.067042	0.060824	7.344617
5448.000000	0.069159	0.077151	8.635631
5449.000000	0.083906	0.084940	4.311517
5450.000000	0.069458	0.078083	6.382577
5451.000000	0.066774	0.070865	5.695508
5452.000000	0.082941	0.075741	2.922888
5453.000000	0.065555	0.063921	5.700245
5454.000000	0.067168	0.077956	1.740661
5455.000000	0.063941	0.064670	1.206048
5456.000000	0.075155	0.069618	3.565604
5457.000000	0.066425	0.068770	1.941261
5458.000000	0.069579	0.066498	1.408673
5459.000000	0.072361	0.072873	1.366682
5460.000000	0.069512	0.075946	0.623278
5461.000000	0.066105	0.067666	0.423938
5462.000000	0.061032	0.062233	0.238676
5463.000000	0.075315	0.073411	0.343076
5464.000000	0.062338	0.068789	0.423316
5465.000000	0.070240	0.080599	0.585913
5466.000000	0.072819	0.074383	0.548653
5467.000000	0.073140	0.071052	0.884714
5468.000000	0.061812	0.056572	0.531597
5469.000000	0.073336	0.064296	1.035990
5470.000000	0.068242	0.067723	1.514854
5471.000000	0.064662	0.064332	0.767432
5472.000000	0.063914	0.061069	0.790187
5473.000000	0.063295	0.059139	0.836288
5474.000000	0.071697	0.066257	0.561127
5475.000000	0.062080	0.058519	0.374385
5476.000000	0.077134	0.075654	1.212862
5477.000000	0.064209	0.062178	0.639105
5478.000000	0.062679	0.059920	1.340355
5479.000000	0.059470	0.057258	0.309225
5480.000000	0.067942	0.068074	0.268964
5481.000000	0.058695	0.051951	0.231108
5482.000000	0.066303	0.068463	0.586171
5483.000000	0.064198	0.062400	0.317662
5484.000000	0.067931	0.070859	0.945103
5485.000000	0.057009	0.055116	0.210775
5486.000000	0.060144	0.058725	0.529768
5487.000000	0.067370	0.061561	0.298357
5488.000000	0.052896	0.053507	0.273977
5489.000000	0.056773	0.063652	0.825471
5490.000000	0.061554	0.055892	0.769021
5491.000000	0.051762	0.054179	0.719247
5492.000000	0.066748	0.072900	1.023896
5493.000000	0.061049	0.062696	1.615453
5494.000000	0.063734	0.069142	0.812842
5495.000000	0.056998	0.056420	0.925563
5496.000000	0.063796	0.069347	0.941398
5497.000000	0.055809	0.055959	0.310703
5498.000000	0.057316	0.052220	0.849324
5499.000000	0.057494	0.054968	1.157901
5500.000000	0.056366	0.061840	1.981589
